h min seg;ACC ACCX ACCY ACCZ m/s^2;GGY GGYX GGYY GGYZ rad/s;DIS D6 D7 [mm];Colision D6(Bool) D7(Bool);Temperatura Ambiental CPU_MR [ºC]
0 0 3;0 0 -10;0 0 0;119 255;1 0;23 46.15
0 0 3;0 0 -10;0 0 0;119 255;1 0;23 46.3
0 0 5;0 0 -10;0 0 0;120 255;1 0;23 46.7
0 0 5;0 0 -10;0 0 0;120 255;1 0;23 46.85
0 0 5;0 0 -10;0 0 0;120 255;1 0;23 46.5
0 0 7;0 0 -10;0 0 0;118 255;1 0;23 46.65
0 0 7;0 0 -10;0 0 0;118 255;1 0;23 46.6
0 0 7;0 0 -10;0 0 0;118 255;1 0;23 46.9
0 0 7;0 0 -10;0 0 0;118 255;1 0;23 47.1
0 0 9;0 0 -10;0 0 0;118 255;1 0;23 47.05
0 0 9;0 0 -10;0 0 0;118 255;1 0;23 46.9
0 0 9;0 0 -10;0 0 0;118 255;1 0;23 47.45
0 0 9;0 0 -10;0 0 0;118 255;1 0;23 47.2
0 0 11;0 0 -10;0 0 0;115 255;1 0;23 48.15
0 0 11;0 0 -10;0 0 0;115 255;1 0;23 48.29
0 0 11;0 0 -10;0 0 0;115 255;1 0;23 48.0
0 0 11;0 0 -10;0 0 0;115 255;1 0;23 48.2
0 0 13;0 0 -10;0 0 0;121 255;1 0;23 48.0
0 0 13;0 0 -10;0 0 0;121 255;1 0;23 48.15
0 0 13;0 0 -10;0 0 0;121 255;1 0;23 47.85
0 0 13;0 0 -10;0 0 0;121 255;1 0;23 47.9
0 0 15;0 0 -10;0 0 0;115 255;1 0;23 47.95
0 0 15;0 0 -10;0 0 0;115 255;1 0;23 47.9
0 0 15;0 0 -10;0 0 0;115 255;1 0;23 47.65
0 0 15;0 0 -10;0 0 0;115 255;1 0;23 48.62
0 0 17;0 0 -10;0 0 0;120 255;1 0;23 48.62
0 0 17;0 0 -10;0 0 0;120 255;1 0;23 48.61
0 0 17;0 0 -10;0 0 0;120 255;1 0;23 48.63
0 0 17;0 0 -10;0 0 0;120 255;1 0;23 48.91
0 0 17;0 0 -10;0 0 0;120 255;1 0;23 48.75
0 0 19;0 0 -10;0 0 0;119 255;1 0;23 48.76
0 0 19;0 0 -10;0 0 0;119 255;1 0;23 48.87
0 0 19;0 0 -10;0 0 0;119 255;1 0;23 48.95
0 0 19;0 0 -10;0 0 0;119 255;1 0;23 49.17
0 0 21;0 0 -10;0 0 0;120 255;1 0;23 49.21
0 0 21;0 0 -10;0 0 0;120 255;1 0;23 49.0
0 0 21;0 0 -10;0 0 0;120 255;1 0;23 48.95
0 0 21;0 0 -10;0 0 0;120 255;1 0;23 48.77
0 0 23;0 0 -10;0 0 0;190 255;0 0;23 49.37
0 0 23;0 0 -10;0 0 0;190 255;0 0;23 49.23
0 0 23;0 0 -10;0 0 0;190 255;0 0;23 49.21
0 0 23;0 0 -10;0 0 0;190 255;0 0;23 49.26
0 0 23;0 0 -10;0 0 0;190 255;0 0;23 49.31
0 0 25;0 0 -10;0 0 0;255 255;0 0;23 49.56
0 0 25;0 0 -10;0 0 0;255 255;0 0;23 49.06
0 0 25;0 0 -10;0 0 0;255 255;0 0;23 49.75
0 0 25;0 0 -10;0 0 0;255 255;0 0;23 49.58
0 0 27;0 0 -10;0 0 0;255 255;0 0;23 49.43
0 0 27;0 0 -10;0 0 0;255 255;0 0;23 49.72
0 0 27;0 0 -10;0 0 0;255 255;0 0;23 49.65
0 0 27;0 0 -10;0 0 0;255 255;0 0;23 49.95
0 0 29;0 0 -10;0 0 0;255 255;0 0;23 49.41
0 0 29;0 0 -10;0 0 0;255 255;0 0;23 49.7
0 0 29;0 0 -10;0 0 0;255 255;0 0;23 50.3
0 0 29;0 0 -10;0 0 0;255 255;0 0;23 50.0
0 0 31;0 0 -10;0 0 0;255 255;0 0;23 48.99
0 0 31;0 0 -10;0 0 0;255 255;0 0;23 49.22
0 0 31;0 0 -10;0 0 0;255 255;0 0;23 49.56
0 0 31;0 0 -10;0 0 0;255 255;0 0;23 49.55
0 0 33;0 0 -10;0 0 0;255 255;0 0;23 49.71
0 0 33;0 0 -10;0 0 0;255 255;0 0;23 49.56
0 0 33;0 0 -10;0 0 0;255 255;0 0;23 49.7
0 0 33;0 0 -10;0 0 0;255 255;0 0;23 49.66
0 0 33;0 0 -10;0 0 0;255 255;0 0;23 50.1
0 0 35;0 0 -10;0 0 0;255 255;0 0;23 49.81
0 0 35;0 0 -10;0 0 0;255 255;0 0;23 49.85
0 0 35;0 0 -10;0 0 0;255 255;0 0;23 50.15
0 0 35;0 0 -10;0 0 0;255 255;0 0;23 49.8
0 0 35;0 0 -10;0 0 0;255 255;0 0;23 49.75
0 0 37;0 0 -10;0 0 0;255 255;0 0;23 49.65
0 0 37;0 0 -10;0 0 0;255 255;0 0;23 49.76
0 0 37;0 0 -10;0 0 0;255 255;0 0;23 50.0
0 0 37;0 0 -10;0 0 0;255 255;0 0;23 50.2
0 0 39;0 0 -10;0 0 0;255 255;0 0;23 49.6
0 0 39;0 0 -10;0 0 0;255 255;0 0;23 50.4
0 0 39;0 0 -10;0 0 0;255 255;0 0;23 50.15
0 0 39;0 0 -10;0 0 0;255 255;0 0;23 49.95
0 0 41;0 0 -10;0 0 0;255 255;0 0;23 50.05
0 0 41;0 0 -10;0 0 0;255 255;0 0;23 50.35
0 0 41;0 0 -10;0 0 0;255 255;0 0;23 50.5
0 0 41;0 0 -10;0 0 0;255 255;0 0;23 50.26
0 0 41;0 0 -10;0 0 0;255 255;0 0;23 50.7
0 0 43;0 0 -10;0 0 0;255 255;0 0;23 50.9
0 0 43;0 0 -10;0 0 0;255 255;0 0;23 50.35
0 0 43;0 0 -10;0 0 0;255 255;0 0;23 50.65
0 0 45;0 0 -10;0 0 0;255 255;0 0;23 50.65
0 0 45;0 0 -10;0 0 0;255 255;0 0;23 51.3
0 0 45;0 0 -10;0 0 0;255 255;0 0;23 51.15
0 0 45;0 0 -10;0 0 0;255 255;0 0;23 51.45
0 0 47;0 0 -10;0 0 0;255 255;0 0;23 51.43
0 0 47;0 0 -10;0 0 0;255 255;0 0;23 51.54
0 0 47;0 0 -10;0 0 0;255 255;0 0;23 51.44
0 0 47;0 0 -10;0 0 0;255 255;0 0;23 51.54
0 0 47;0 0 -10;0 0 0;255 255;0 0;23 51.4
0 0 49;0 0 -10;0 0 0;255 255;0 0;23 51.45
0 0 49;0 0 -10;0 0 0;255 255;0 0;23 51.05
0 0 49;0 0 -10;0 0 0;255 255;0 0;23 51.8
0 0 51;0 0 -10;0 0 0;255 255;0 0;23 51.7
0 0 51;0 0 -10;0 0 0;255 255;0 0;23 51.29
0 0 51;0 0 -10;0 0 0;255 255;0 0;23 51.89
0 0 51;0 0 -10;0 0 0;255 255;0 0;23 51.83
0 0 54;0 0 -10;0 0 0;255 255;0 0;23 51.55
0 0 54;0 0 -10;0 0 0;255 255;0 0;23 51.97
0 0 54;0 0 -10;0 0 0;255 255;0 0;23 51.7
0 0 56;0 0 -10;0 0 0;255 255;0 0;22 51.84
0 0 56;0 0 -10;0 0 0;255 255;0 0;22 52.25
0 0 56;0 0 -10;0 0 0;255 255;0 0;22 52.53
0 0 56;0 0 -10;0 0 0;255 255;0 0;22 52.5
0 0 56;0 0 -10;0 0 0;255 255;0 0;22 52.43
0 0 58;0 0 -10;0 0 0;255 255;0 0;23 52.81
0 0 58;0 0 -10;0 0 0;255 255;0 0;23 52.17
0 0 58;0 0 -10;0 0 0;255 255;0 0;23 52.54
0 0 58;0 0 -10;0 0 0;255 255;0 0;23 52.57
0 1 0;0 0 -10;0 0 0;255 255;0 0;23 52.67
0 1 0;0 0 -10;0 0 0;255 255;0 0;23 52.3
0 1 0;0 0 -10;0 0 0;255 255;0 0;23 51.85
0 1 0;0 0 -10;0 0 0;255 255;0 0;23 52.48
0 1 2;0 0 -10;0 0 0;255 255;0 0;23 52.07
0 1 2;0 0 -10;0 0 0;255 255;0 0;23 52.16
0 1 2;0 0 -10;0 0 0;255 255;0 0;23 52.14
0 1 2;0 0 -10;0 0 0;255 255;0 0;23 52.3
0 1 4;0 0 -10;0 0 0;255 255;0 0;23 52.25
0 1 4;0 0 -10;0 0 0;255 255;0 0;23 52.19
0 1 4;0 0 -10;0 0 0;255 255;0 0;23 52.58
0 1 4;0 0 -10;0 0 0;255 255;0 0;23 52.97
0 1 4;0 0 -10;0 0 0;255 255;0 0;23 52.75
0 1 6;0 0 -10;0 0 0;255 255;0 0;23 53.1
0 1 6;0 0 -10;0 0 0;255 255;0 0;23 53.2
0 1 8;0 0 -10;0 0 0;255 255;0 0;23 52.82
0 1 8;0 0 -10;0 0 0;255 255;0 0;23 53.45
0 1 8;0 0 -10;0 0 0;255 255;0 0;23 52.86
0 1 8;0 0 -10;0 0 0;255 255;0 0;23 52.8
0 1 8;0 0 -10;0 0 0;255 255;0 0;23 52.76
0 1 10;0 0 -10;0 0 0;255 255;0 0;23 52.66
0 1 10;0 0 -10;0 0 0;255 255;0 0;23 52.91
0 1 10;0 0 -10;0 0 0;255 255;0 0;23 52.67
0 1 12;0 0 -10;0 0 0;255 255;0 0;23 52.76
0 1 12;0 0 -10;0 0 0;255 255;0 0;23 52.82
0 1 12;0 0 -10;0 0 0;255 255;0 0;23 52.66
0 1 12;0 0 -10;0 0 0;255 255;0 0;23 52.91
0 1 14;0 0 -10;0 0 0;255 255;0 0;23 52.96
0 1 14;0 0 -10;0 0 0;255 255;0 0;23 53.35
0 1 14;0 0 -10;0 0 0;255 255;0 0;23 53.25
0 1 14;0 0 -10;0 0 0;255 255;0 0;23 53.55
0 1 14;0 0 -10;0 0 0;255 255;0 0;23 53.3
0 1 16;0 0 -10;0 0 0;255 255;0 0;23 53.15
0 1 16;0 0 -10;0 0 0;255 255;0 0;23 53.75
0 1 16;0 0 -10;0 0 0;255 255;0 0;23 53.3
0 1 16;0 0 -10;0 0 0;255 255;0 0;23 54.05
0 1 16;0 0 -10;0 0 0;255 255;0 0;23 53.45
0 1 18;0 0 -10;0 0 0;255 37;0 1;23 53.1
0 1 18;0 0 -10;0 0 0;255 37;0 1;23 53.3
0 1 18;0 0 -10;0 0 0;255 37;0 1;23 53.4
0 1 18;0 0 -10;0 0 0;255 37;0 1;23 53.45
0 1 20;0 0 -10;0 0 0;255 34;0 1;23 53.5
0 1 20;0 0 -10;0 0 0;255 34;0 1;23 53.8
0 1 20;0 0 -10;0 0 0;255 34;0 1;23 53.5
0 1 20;0 0 -10;0 0 0;255 34;0 1;23 53.7
0 1 22;0 0 -10;0 0 0;255 33;0 1;23 53.45
0 1 22;0 0 -10;0 0 0;255 33;0 1;23 53.6
0 1 22;0 0 -10;0 0 0;255 33;0 1;23 53.7
0 1 22;0 0 -10;0 0 0;255 33;0 1;23 53.95
0 1 24;0 0 -10;0 0 0;255 32;0 1;23 53.75
0 1 24;0 0 -10;0 0 0;255 32;0 1;23 53.65
0 1 24;0 0 -10;0 0 0;255 32;0 1;23 53.6
0 1 26;0 0 -10;0 0 0;255 51;0 1;23 53.85
0 1 26;0 0 -10;0 0 0;255 51;0 1;23 54.05
0 1 28;0 0 -10;0 0 0;255 61;0 1;23 54.15
0 1 28;0 0 -10;0 0 0;255 61;0 1;23 54.55
0 1 28;0 0 -10;0 0 0;255 61;0 1;23 54.1
0 1 28;0 0 -10;0 0 0;255 61;0 1;23 54.15
0 1 30;0 0 -10;0 0 0;255 66;0 1;23 54.0
0 1 30;0 0 -10;0 0 0;255 66;0 1;23 54.2
0 1 30;0 0 -10;0 0 0;255 66;0 1;23 53.85
0 1 30;0 0 -10;0 0 0;255 66;0 1;23 54.55
0 1 30;0 0 -10;0 0 0;255 66;0 1;23 54.1
0 1 32;0 0 -10;0 0 0;255 65;0 1;23 54.3
0 1 32;0 0 -10;0 0 0;255 65;0 1;23 54.45
0 1 32;0 0 -10;0 0 0;255 65;0 1;23 54.2
0 1 34;0 0 -10;0 0 0;255 58;0 1;23 54.1
0 1 34;0 0 -10;0 0 0;255 58;0 1;23 54.2
0 1 34;0 0 -10;0 0 0;255 58;0 1;23 54.15
0 1 36;0 0 -10;0 0 0;255 255;0 0;23 54.4
0 1 36;0 0 -10;0 0 0;255 255;0 0;23 54.5
0 1 36;0 0 -10;0 0 0;255 255;0 0;23 54.25
0 1 36;0 0 -10;0 0 0;255 255;0 0;23 54.55
0 1 38;0 0 -10;0 0 0;255 255;0 0;23 54.55
0 1 38;0 0 -10;0 0 0;255 255;0 0;23 54.75
0 1 38;0 0 -10;0 0 0;255 255;0 0;23 54.7
0 1 38;0 0 -10;0 0 0;255 255;0 0;23 54.45
0 1 40;0 0 -10;0 0 0;255 255;0 0;23 54.65
0 1 40;0 0 -10;0 0 0;255 255;0 0;23 54.7
0 1 42;0 0 -10;0 0 0;255 255;0 0;23 54.85
0 1 42;0 0 -10;0 0 0;255 255;0 0;23 54.65
0 1 42;0 0 -10;0 0 0;255 255;0 0;23 54.9
0 1 42;0 0 -10;0 0 0;255 255;0 0;23 54.55
0 1 44;0 0 -10;0 0 0;255 255;0 0;23 54.85
0 1 44;0 0 -10;0 0 0;255 255;0 0;23 55.05
0 1 44;0 0 -10;0 0 0;255 255;0 0;23 54.95
0 1 44;0 0 -10;0 0 0;255 255;0 0;23 54.8
0 1 46;0 0 -10;0 0 0;255 255;0 0;23 54.75
0 1 46;0 0 -10;0 0 0;255 255;0 0;23 55.09
0 1 46;0 0 -10;0 0 0;255 255;0 0;23 55.05
0 1 46;0 0 -10;0 0 0;255 255;0 0;23 54.9
0 1 48;0 0 -10;0 0 0;255 255;0 0;23 54.7
0 1 48;0 0 -10;0 0 0;255 255;0 0;23 55.15
0 1 48;0 0 -10;0 0 0;255 255;0 0;23 55.0
0 1 50;0 0 -10;0 0 0;255 255;0 0;23 54.95
0 1 50;0 0 -10;0 0 0;255 255;0 0;23 55.4
0 1 50;0 0 -10;0 0 0;255 255;0 0;23 55.35
0 1 52;0 0 -10;0 0 0;255 255;0 0;23 55.1
0 1 52;0 0 -10;0 0 0;255 255;0 0;23 55.3
0 1 52;0 0 -10;0 0 0;255 255;0 0;23 55.4
0 1 52;0 0 -10;0 0 0;255 255;0 0;23 55.3
0 1 54;0 0 -10;0 0 0;255 255;0 0;23 55.25
0 1 54;0 0 -10;0 0 0;255 255;0 0;23 55.39
0 1 54;0 0 -10;0 0 0;255 255;0 0;23 55.5
0 1 56;0 0 -10;0 0 0;255 255;0 0;23 55.15
0 1 56;0 0 -10;0 0 0;255 255;0 0;23 55.35
0 1 56;0 0 -10;0 0 0;255 255;0 0;23 55.64
0 1 56;0 0 -10;0 0 0;255 255;0 0;23 55.05
0 1 58;0 0 -10;0 0 0;255 255;0 0;23 55.2
0 1 58;0 0 -10;0 0 0;255 255;0 0;23 55.53
0 1 58;0 0 -10;0 0 0;255 255;0 0;23 56.15
0 2 1;0 0 -10;0 0 0;255 255;0 0;23 56.11
0 2 1;0 0 -10;0 0 0;255 255;0 0;23 56.01
0 2 1;0 0 -10;0 0 0;255 255;0 0;23 55.73
0 2 1;0 0 -10;0 0 0;255 255;0 0;23 56.02
0 2 3;0 0 -10;0 0 0;255 255;0 0;23 55.4
0 2 3;0 0 -10;0 0 0;255 255;0 0;23 55.5
0 2 3;0 0 -10;0 0 0;255 255;0 0;23 55.64
0 2 5;0 0 -10;0 0 0;255 255;0 0;23 56.07
0 2 5;0 0 -10;0 0 0;255 255;0 0;23 55.82
0 2 5;0 0 -10;0 0 0;255 255;0 0;23 55.99
0 2 5;0 0 -10;0 0 0;255 255;0 0;23 56.06
0 2 5;0 0 -10;0 0 0;255 255;0 0;23 56.19
0 2 7;0 0 -10;0 0 0;255 255;0 0;23 56.26
0 2 7;0 0 -10;0 0 0;255 255;0 0;23 55.98
0 2 7;0 0 -10;0 0 0;255 255;0 0;23 56.11
0 2 7;0 0 -10;0 0 0;255 255;0 0;23 55.73
0 2 9;0 0 -10;0 0 0;255 255;0 0;23 55.83
0 2 9;0 0 -10;0 0 0;255 255;0 0;23 56.01
0 2 9;0 0 -10;0 0 0;255 255;0 0;23 56.19
0 2 9;0 0 -10;0 0 0;255 255;0 0;23 56.38
0 2 11;0 0 -10;0 0 0;255 255;0 0;23 56.16
0 2 11;0 0 -10;0 0 0;255 255;0 0;23 56.43
0 2 11;0 0 -10;0 0 0;255 255;0 0;23 56.33
0 2 11;0 0 -10;0 0 0;255 255;0 0;23 56.07
0 2 11;0 0 -10;0 0 0;255 255;0 0;23 56.06
0 2 13;0 0 -10;0 0 0;255 255;0 0;23 56.49
0 2 13;0 0 -10;0 0 0;255 255;0 0;23 56.33
0 2 13;0 0 -10;0 0 0;255 255;0 0;23 56.47
0 2 13;0 0 -10;0 0 0;255 255;0 0;23 56.16
0 2 15;0 0 -10;0 0 0;255 255;0 0;23 56.6
0 2 15;0 0 -10;0 0 0;255 255;0 0;23 56.73
0 2 15;0 0 -10;0 0 0;255 255;0 0;23 56.53
0 2 17;0 0 -10;0 0 0;255 255;0 0;23 56.25
0 2 17;0 0 -10;0 0 0;255 255;0 0;23 56.62
0 2 17;0 0 -10;0 0 0;255 255;0 0;23 56.48
0 2 17;0 0 -10;0 0 0;255 255;0 0;23 56.62
0 2 19;0 0 -10;0 0 0;255 255;0 0;23 56.61
0 2 19;0 0 -10;0 0 0;255 255;0 0;23 56.68
0 2 19;0 0 -10;0 0 0;255 255;0 0;23 57.05
0 2 19;0 0 -10;0 0 0;255 255;0 0;23 56.9
0 2 21;0 0 -10;0 0 0;255 255;0 0;23 56.69
0 2 21;0 0 -10;0 0 0;255 255;0 0;23 56.8
0 2 21;0 0 -10;0 0 0;255 255;0 0;23 57.01
0 2 21;0 0 -10;0 0 0;255 255;0 0;23 57.65
0 2 23;0 0 -10;0 0 0;255 255;0 0;23 56.33
0 2 23;0 0 -10;0 0 0;255 255;0 0;23 56.43
0 2 23;0 0 -10;0 0 0;255 255;0 0;23 56.91
0 2 23;0 0 -10;0 0 0;255 255;0 0;23 56.48
0 2 23;0 0 -10;0 0 0;255 255;0 0;23 56.86
0 2 25;0 0 -10;0 0 0;255 255;0 0;23 56.76
0 2 25;0 0 -10;0 0 0;255 255;0 0;23 56.83
0 2 25;0 0 -10;0 0 0;255 255;0 0;23 57.2
0 2 25;0 0 -10;0 0 0;255 255;0 0;23 56.61
0 2 25;0 0 -10;0 0 0;255 255;0 0;23 56.56
0 2 27;0 0 -10;0 0 0;255 255;0 0;23 56.56
0 2 27;0 0 -10;0 0 0;255 255;0 0;23 56.81
0 2 27;0 0 -10;0 0 0;255 255;0 0;23 56.97
0 2 27;0 0 -10;0 0 0;255 255;0 0;23 56.96
0 2 29;0 0 -10;0 0 0;255 255;0 0;23 56.56
0 2 29;0 0 -10;0 0 0;255 255;0 0;23 57.06
0 2 29;0 0 -10;0 0 0;255 255;0 0;23 56.82
0 2 29;0 0 -10;0 0 0;255 255;0 0;23 56.97
0 2 31;0 0 -10;0 0 0;255 255;0 0;23 56.96
0 2 31;0 0 -10;0 0 0;255 255;0 0;23 57.05
0 2 31;0 0 -10;0 0 0;255 255;0 0;23 56.85
0 2 31;0 0 -10;0 0 0;255 255;0 0;23 56.67
0 2 33;0 0 -10;0 0 0;255 255;0 0;23 56.88
0 2 33;0 0 -10;0 0 0;255 255;0 0;23 57.3
0 2 33;0 0 -10;0 0 0;255 255;0 0;23 57.01
0 2 33;0 0 -10;0 0 0;255 255;0 0;23 57.0
0 2 35;0 0 -10;0 0 0;255 255;0 0;23 57.3
0 2 35;0 0 -10;0 0 0;255 255;0 0;23 57.6
0 2 35;0 0 -10;0 0 0;255 255;0 0;23 58.1
0 2 35;0 0 -10;0 0 0;255 255;0 0;23 57.7
0 2 37;0 0 -10;0 0 0;255 255;0 0;23 57.75
0 2 37;0 0 -10;0 0 0;255 255;0 0;23 57.65
0 2 37;0 0 -10;0 0 0;255 255;0 0;23 58.0
0 2 39;0 0 -10;0 0 0;255 255;0 0;23 57.7
0 2 39;0 0 -10;0 0 0;255 255;0 0;23 57.9
0 2 39;0 0 -10;0 0 0;255 255;0 0;23 58.0
0 2 41;0 0 -10;0 0 0;255 255;0 0;23 58.1
0 2 41;0 0 -10;0 0 0;255 255;0 0;23 57.95
0 2 41;0 0 -10;0 0 0;255 255;0 0;23 58.1
0 2 41;0 0 -10;0 0 0;255 255;0 0;23 58.25
0 2 43;0 0 -10;0 0 0;255 255;0 0;23 57.95
0 2 43;0 0 -10;0 0 0;255 255;0 0;23 57.4
0 2 43;0 0 -10;0 0 0;255 255;0 0;23 57.5
0 2 43;0 0 -10;0 0 0;255 255;0 0;23 57.9
0 2 45;0 0 -10;0 0 0;255 255;0 0;23 57.46
0 2 45;0 0 -10;0 0 0;255 255;0 0;23 57.95
0 2 45;0 0 -10;0 0 0;255 255;0 0;23 57.65
0 2 47;0 0 -10;0 0 0;255 255;0 0;23 57.85
0 2 47;0 0 -10;0 0 0;255 255;0 0;23 57.6
0 2 47;0 0 -10;0 0 0;255 255;0 0;23 57.8
0 2 47;0 0 -10;0 0 0;255 255;0 0;23 57.75
0 2 49;0 0 -10;0 0 0;255 255;0 0;23 57.5
0 2 49;0 0 -10;0 0 0;255 255;0 0;23 57.6
0 2 49;0 0 -10;0 0 0;255 255;0 0;23 57.75
0 2 49;0 0 -10;0 0 0;255 255;0 0;23 57.85
0 2 51;0 0 -10;0 0 0;255 255;0 0;23 58.2
0 2 51;0 0 -10;0 0 0;255 255;0 0;23 58.0
0 2 51;0 0 -10;0 0 0;255 255;0 0;23 58.1
0 2 51;0 0 -10;0 0 0;255 255;0 0;23 57.7
0 2 53;0 0 -10;0 0 0;255 255;0 0;23 57.75
0 2 53;0 0 -10;0 0 0;255 255;0 0;23 58.0
0 2 53;0 0 -10;0 0 0;255 255;0 0;23 57.9
0 2 53;0 0 -10;0 0 0;255 255;0 0;23 58.1
0 2 55;0 0 -10;0 0 0;255 255;0 0;23 57.95
0 2 55;0 0 -10;0 0 0;255 255;0 0;23 57.7
0 2 55;0 0 -10;0 0 0;255 255;0 0;23 58.0
0 2 57;0 0 -10;0 0 0;255 255;0 0;23 58.2
0 2 57;0 0 -10;0 0 0;255 255;0 0;23 58.3
0 2 57;0 0 -10;0 0 0;255 255;0 0;23 58.35
0 2 59;0 0 -10;0 0 0;255 255;0 0;23 58.3
0 2 59;0 0 -10;0 0 0;255 255;0 0;23 58.1
0 2 59;0 0 -10;0 0 0;255 255;0 0;23 58.4
0 3 1;0 0 -10;0 0 0;255 255;0 0;23 58.2
0 3 1;0 0 -10;0 0 0;255 255;0 0;23 58.5
0 3 1;0 0 -10;0 0 0;255 255;0 0;23 58.55
0 3 1;0 0 -10;0 0 0;255 255;0 0;23 58.35
0 3 3;0 0 -10;0 0 0;255 255;0 0;23 58.45
0 3 3;0 0 -10;0 0 0;255 255;0 0;23 58.9
0 3 3;0 0 -10;0 0 0;255 255;0 0;23 58.2
0 3 5;0 0 -10;0 0 0;255 255;0 0;23 58.35
0 3 5;0 0 -10;0 0 0;255 255;0 0;23 58.4
0 3 5;0 0 -10;0 0 0;255 255;0 0;23 58.6
0 3 5;0 0 -10;0 0 0;255 255;0 0;23 58.35
0 3 8;0 0 -10;0 0 0;255 255;0 0;23 58.15
0 3 8;0 0 -10;0 0 0;255 255;0 0;23 58.65
0 3 8;0 0 -10;0 0 0;255 255;0 0;23 58.5
0 3 8;0 0 -10;0 0 0;255 255;0 0;23 58.15
0 3 10;0 0 -10;0 0 0;255 255;0 0;23 58.5
0 3 10;0 0 -10;0 0 0;255 255;0 0;23 58.25
0 3 10;0 0 -10;0 0 0;255 255;0 0;23 58.45
0 3 10;0 0 -10;0 0 0;255 255;0 0;23 58.5
0 3 12;0 0 -10;0 0 0;255 255;0 0;23 58.05
0 3 12;0 0 -10;0 0 0;255 255;0 0;23 58.45
0 3 12;0 0 -10;0 0 0;255 255;0 0;23 58.65
0 3 12;0 0 -10;0 0 0;255 255;0 0;23 58.5
0 3 14;0 0 -10;0 0 0;255 255;0 0;23 58.15
0 3 14;0 0 -10;0 0 0;255 255;0 0;23 58.25
0 3 14;0 0 -10;0 0 0;255 255;0 0;23 58.45
0 3 14;0 0 -10;0 0 0;255 255;0 0;23 58.6
0 3 16;0 0 -10;0 0 0;255 255;0 0;23 59.1
0 3 16;0 0 -10;0 0 0;255 255;0 0;23 58.45
0 3 16;0 0 -10;0 0 0;255 255;0 0;23 58.8
0 3 16;0 0 -10;0 0 0;255 255;0 0;23 58.35
0 3 16;0 0 -10;0 0 0;255 255;0 0;23 59.1
0 3 18;0 0 -10;0 0 0;255 255;0 0;23 58.4
0 3 18;0 0 -10;0 0 0;255 255;0 0;23 58.2
0 3 18;0 0 -10;0 0 0;255 255;0 0;23 58.65
0 3 18;0 0 -10;0 0 0;255 255;0 0;23 58.75
0 3 20;0 0 -10;0 0 0;255 255;0 0;23 58.9
0 3 20;0 0 -10;0 0 0;255 255;0 0;23 58.5
0 3 20;0 0 -10;0 0 0;255 255;0 0;23 58.15
0 3 20;0 0 -10;0 0 0;255 255;0 0;23 59.0
0 3 22;0 0 -10;0 0 0;255 255;0 0;23 59.25
0 3 22;0 0 -10;0 0 0;255 255;0 0;23 59.3
0 3 22;0 0 -10;0 0 0;255 255;0 0;23 59.39
0 3 22;0 0 -10;0 0 0;255 255;0 0;23 59.5
0 3 24;0 0 -10;0 0 0;255 255;0 0;23 58.95
0 3 24;0 0 -10;0 0 0;255 255;0 0;23 59.09
0 3 24;0 0 -10;0 0 0;255 255;0 0;23 59.45
0 3 24;0 0 -10;0 0 0;255 255;0 0;23 59.4
0 3 26;0 0 -10;0 0 0;255 255;0 0;23 59.13
0 3 26;0 0 -10;0 0 0;255 255;0 0;23 59.3
0 3 26;0 0 -10;0 0 0;255 255;0 0;23 59.65
0 3 28;0 0 -10;0 0 0;255 255;0 0;23 59.55
0 3 28;0 0 -10;0 0 0;255 255;0 0;23 59.59
0 3 28;0 0 -10;0 0 0;255 255;0 0;23 59.3
0 3 28;0 0 -10;0 0 0;255 255;0 0;23 59.45
0 3 28;0 0 -10;0 0 0;255 255;0 0;23 59.39
0 3 30;0 0 -10;0 0 0;255 255;0 0;23 59.45
0 3 30;0 0 -10;0 0 0;255 255;0 0;23 59.25
0 3 30;0 0 -10;0 0 0;255 255;0 0;23 59.3
0 3 32;0 0 -10;0 0 0;255 255;0 0;23 59.45
0 3 32;0 0 -10;0 0 0;255 255;0 0;23 59.4
0 3 32;0 0 -10;0 0 0;255 255;0 0;23 59.29
0 3 32;0 0 -10;0 0 0;255 255;0 0;23 59.34
0 3 34;0 0 -10;0 0 0;255 255;0 0;23 59.35
0 3 34;0 0 -10;0 0 0;255 255;0 0;23 59.53
0 3 34;0 0 -10;0 0 0;255 255;0 0;23 59.35
0 3 34;0 0 -10;0 0 0;255 255;0 0;23 59.69
0 3 34;0 0 -10;0 0 0;255 255;0 0;23 59.5
0 3 36;0 0 -10;0 0 0;255 255;0 0;23 59.3
0 3 36;0 0 -10;0 0 0;255 255;0 0;23 59.69
0 3 36;0 0 -10;0 0 0;255 255;0 0;23 59.54
0 3 38;0 0 -10;0 0 0;255 255;0 0;23 59.44
0 3 38;0 0 -10;0 0 0;255 255;0 0;23 59.23
0 3 38;0 0 -10;0 0 0;255 255;0 0;23 59.0
0 3 38;0 0 -10;0 0 0;255 255;0 0;23 59.34
0 3 38;0 0 -10;0 0 0;255 255;0 0;23 59.78
0 3 40;0 0 -10;0 0 0;255 255;0 0;23 59.74
0 3 40;0 0 -10;0 0 0;255 255;0 0;23 59.39
0 3 40;0 0 -10;0 0 0;255 255;0 0;23 60.14
0 3 40;0 0 -10;0 0 0;255 255;0 0;23 59.69
0 3 40;0 0 -10;0 0 0;255 255;0 0;23 59.87
0 3 42;0 0 -10;0 0 0;255 255;0 0;23 59.5
0 3 42;0 0 -10;0 0 0;255 255;0 0;23 59.91
0 3 42;0 0 -10;0 0 0;255 255;0 0;23 59.48
0 3 44;0 0 -10;0 0 0;255 255;0 0;23 59.86
0 3 44;0 0 -10;0 0 0;255 255;0 0;23 59.95
0 3 44;0 0 -10;0 0 0;255 255;0 0;23 59.81
0 3 44;0 0 -10;0 0 0;255 255;0 0;23 59.72
0 3 46;0 0 -10;0 0 0;255 255;0 0;23 59.86
0 3 46;0 0 -10;0 0 0;255 255;0 0;23 59.91
0 3 46;0 0 -10;0 0 0;255 255;0 0;23 60.11
0 3 48;0 0 -10;0 0 0;255 255;0 0;23 59.48
0 3 48;0 0 -10;0 0 0;255 255;0 0;23 59.88
0 3 48;0 0 -10;0 0 0;255 255;0 0;23 59.4
0 3 48;0 0 -10;0 0 0;255 255;0 0;23 59.44
0 3 50;0 0 -10;0 0 0;255 255;0 0;23 59.3
0 3 50;0 0 -10;0 0 0;255 255;0 0;23 59.69
0 3 50;0 0 -10;0 0 0;255 255;0 0;23 59.49
0 3 50;0 0 -10;0 0 0;255 255;0 0;23 59.45
0 3 52;0 0 -10;0 0 0;255 255;0 0;23 59.45
0 3 52;0 0 -10;0 0 0;255 255;0 0;23 59.44
0 3 52;0 0 -10;0 0 0;255 255;0 0;23 59.29
0 3 52;0 0 -10;0 0 0;255 255;0 0;23 59.14
0 3 54;0 0 -10;0 0 0;255 255;0 0;23 58.75
0 3 54;0 0 -10;0 0 0;255 255;0 0;23 59.25
0 3 54;0 0 -10;0 0 0;255 255;0 0;23 58.95
0 3 54;0 0 -10;0 0 0;255 255;0 0;23 59.44
0 3 56;0 0 -10;0 0 0;255 255;0 0;23 59.67
0 3 56;0 0 -10;0 0 0;255 255;0 0;23 59.54
0 3 56;0 0 -10;0 0 0;255 255;0 0;23 59.77
0 3 58;0 0 -10;0 0 0;255 255;0 0;23 60.01
0 3 58;0 0 -10;0 0 0;255 255;0 0;23 60.09
0 3 58;0 0 -10;0 0 0;255 255;0 0;23 60.11
0 3 58;0 0 -10;0 0 0;255 255;0 0;23 60.06
0 4 0;0 0 -10;0 0 0;255 255;0 0;23 59.24
0 4 0;0 0 -10;0 0 0;255 255;0 0;23 59.97
0 4 0;0 0 -10;0 0 0;255 255;0 0;23 59.96
0 4 0;0 0 -10;0 0 0;255 255;0 0;23 60.22
0 4 2;0 0 -10;0 0 0;255 36;0 1;23 60.05
0 4 2;0 0 -10;0 0 0;255 36;0 1;23 60.06
0 4 2;0 0 -10;0 0 0;255 36;0 1;23 59.52
0 4 2;0 0 -10;0 0 0;255 36;0 1;23 59.81
0 4 2;0 0 -10;0 0 0;255 36;0 1;23 59.77
0 4 4;0 0 -10;0 0 0;255 29;0 1;23 59.2
0 4 4;0 0 -10;0 0 0;255 29;0 1;23 59.4
0 4 4;0 0 -10;0 0 0;255 29;0 1;23 59.3
0 4 4;0 0 -10;0 0 0;255 29;0 1;23 59.4
0 4 6;0 0 -10;0 0 0;255 27;0 1;23 59.68
0 4 6;0 0 -10;0 0 0;255 27;0 1;23 59.73
0 4 6;0 0 -10;0 0 0;255 27;0 1;23 59.49
0 4 6;0 0 -10;0 0 0;255 27;0 1;23 59.63
0 4 6;0 0 -10;0 0 0;255 27;0 1;23 59.45
0 4 8;0 0 -10;0 0 0;255 27;0 1;23 59.49
0 4 8;0 0 -10;0 0 0;255 27;0 1;23 59.73
0 4 8;0 0 -10;0 0 0;255 27;0 1;23 59.39
0 4 8;0 0 -10;0 0 0;255 27;0 1;23 59.4
0 4 8;0 0 -10;0 0 0;255 27;0 1;23 59.58
0 4 10;0 0 -10;0 0 0;255 32;0 1;23 59.88
0 4 10;0 0 -10;0 0 0;255 32;0 1;23 59.68
0 4 10;0 0 -10;0 0 0;255 32;0 1;23 59.24
0 4 12;0 0 -10;0 0 0;255 26;0 1;23 59.25
0 4 12;0 0 -10;0 0 0;255 26;0 1;23 59.38
0 4 12;0 0 -10;0 0 0;255 26;0 1;23 59.39
0 4 12;0 0 -10;0 0 0;255 26;0 1;23 59.25
0 4 15;0 0 -10;0 0 0;255 22;0 1;23 59.59
0 4 15;0 0 -10;0 0 0;255 22;0 1;23 59.48
0 4 15;0 0 -10;0 0 0;255 22;0 1;23 59.54
0 4 15;0 0 -10;0 0 0;255 22;0 1;23 59.55
0 4 17;0 0 -10;0 0 0;255 22;0 1;23 59.2
0 4 17;0 0 -10;0 0 0;255 22;0 1;23 59.38
0 4 17;0 0 -10;0 0 0;255 22;0 1;23 59.1
0 4 17;0 0 -10;0 0 0;255 22;0 1;23 59.39
0 4 17;0 0 -10;0 0 0;255 22;0 1;23 59.45
0 4 19;0 0 -10;0 0 0;255 29;0 1;23 59.55
0 4 19;0 0 -10;0 0 0;255 29;0 1;23 59.54
0 4 19;0 0 -10;0 0 0;255 29;0 1;23 59.44
0 4 19;0 0 -10;0 0 0;255 29;0 1;23 59.57
0 4 21;0 0 -10;0 0 0;255 27;0 1;23 59.55
0 4 21;0 0 -10;0 0 0;255 27;0 1;23 59.3
0 4 21;0 0 -10;0 0 0;255 27;0 1;23 59.48
0 4 23;0 0 -10;0 0 0;255 76;0 1;23 59.58
0 4 23;0 0 -10;0 0 0;255 76;0 1;23 59.49
0 4 23;0 0 -10;0 0 0;255 76;0 1;23 59.4
0 4 23;0 0 -10;0 0 0;255 76;0 1;23 59.44
0 4 25;0 0 -10;0 0 0;255 17;0 1;23 59.49
0 4 25;0 0 -10;0 0 0;255 17;0 1;23 59.68
0 4 25;0 0 -10;0 0 0;255 17;0 1;23 59.58
0 4 25;0 0 -10;0 0 0;255 17;0 1;23 59.69
0 4 27;0 0 -10;0 0 0;255 35;0 1;23 59.62
0 4 27;0 0 -10;0 0 0;255 35;0 1;23 59.73
0 4 27;0 0 -10;0 0 0;255 35;0 1;23 59.74
0 4 27;0 0 -10;0 0 0;255 35;0 1;23 59.68
0 4 29;0 0 -10;0 0 0;255 255;0 0;23 59.34
0 4 29;0 0 -10;0 0 0;255 255;0 0;23 59.59
0 4 29;0 0 -10;0 0 0;255 255;0 0;23 59.77
0 4 29;0 0 -10;0 0 0;255 255;0 0;23 59.54
0 4 29;0 0 -10;0 0 0;255 255;0 0;23 59.64
0 4 31;0 0 -10;0 0 0;255 255;0 0;23 59.54
0 4 31;0 0 -10;0 0 0;255 255;0 0;23 59.53
0 4 31;0 0 -10;0 0 0;255 255;0 0;23 59.68
0 4 31;0 0 -10;0 0 0;255 255;0 0;23 59.9
0 4 33;0 0 -10;0 0 0;255 255;0 0;23 59.87
0 4 33;0 0 -10;0 0 0;255 255;0 0;23 59.77
0 4 33;0 0 -10;0 0 0;255 255;0 0;23 59.59
0 4 33;0 0 -10;0 0 0;255 255;0 0;23 60.01
0 4 35;0 0 -10;0 0 0;255 255;0 0;23 59.63
0 4 35;0 0 -10;0 0 0;255 255;0 0;23 59.97
0 4 35;0 0 -10;0 0 0;255 255;0 0;23 59.83
0 4 35;0 0 -10;0 0 0;255 255;0 0;23 59.64
0 4 37;0 0 -10;0 0 0;255 255;0 0;23 59.87
0 4 37;0 0 -10;0 0 0;255 255;0 0;23 59.54
0 4 37;0 0 -10;0 0 0;255 255;0 0;23 59.78
0 4 37;0 0 -10;0 0 0;255 255;0 0;23 59.58
0 4 39;0 0 -10;0 0 0;255 255;0 0;23 59.63
0 4 39;0 0 -10;0 0 0;255 255;0 0;23 59.4
0 4 39;0 0 -10;0 0 0;255 255;0 0;23 59.91
0 4 39;0 0 -10;0 0 0;255 255;0 0;23 60.27
0 4 41;0 0 -10;0 0 0;255 255;0 0;23 60.33
0 4 41;0 0 -10;0 0 0;255 255;0 0;23 60.47
0 4 41;0 0 -10;0 0 0;255 255;0 0;23 60.25
0 4 41;0 0 -10;0 0 0;255 255;0 0;23 60.34
0 4 43;0 0 -10;0 0 0;255 255;0 0;23 60.33
0 4 43;0 0 -10;0 0 0;255 255;0 0;23 60.29
0 4 43;0 0 -10;0 0 0;255 255;0 0;23 60.43
0 4 43;0 0 -10;0 0 0;255 255;0 0;23 59.96
0 4 45;0 0 -10;0 0 0;255 255;0 0;23 60.51
0 4 45;0 0 -10;0 0 0;255 255;0 0;23 60.38
0 4 45;0 0 -10;0 0 0;255 255;0 0;23 60.05
0 4 45;0 0 -10;0 0 0;255 255;0 0;23 60.18
0 4 45;0 0 -10;0 0 0;255 255;0 0;23 60.39
0 4 47;0 0 -10;0 0 0;255 46;0 1;23 60.03
0 4 47;0 0 -10;0 0 0;255 46;0 1;23 60.52
0 4 47;0 0 -10;0 0 0;255 46;0 1;23 60.2
0 4 47;0 0 -10;0 0 0;255 46;0 1;23 60.14
0 4 47;0 0 -10;0 0 0;255 46;0 1;23 60.33
0 4 49;0 0 -10;0 0 0;255 18;0 1;23 60.31
0 4 49;0 0 -10;0 0 0;255 18;0 1;23 60.14
0 4 49;0 0 -10;0 0 0;255 18;0 1;23 60.4
0 4 49;0 0 -10;0 0 0;255 18;0 1;23 60.26
0 4 51;0 0 -10;0 0 0;255 16;0 1;23 60.48
0 4 51;0 0 -10;0 0 0;255 16;0 1;23 60.28
0 4 51;0 0 -10;0 0 0;255 16;0 1;23 60.35
0 4 51;0 0 -10;0 0 0;255 16;0 1;23 60.58
0 4 53;0 0 -10;0 0 0;255 19;0 1;23 60.23
0 4 53;0 0 -10;0 0 0;255 19;0 1;23 59.58
0 4 53;0 0 -10;0 0 0;255 19;0 1;23 59.29
0 4 53;0 0 -10;0 0 0;255 19;0 1;23 60.57
0 4 55;0 0 -10;0 0 0;255 26;0 1;23 60.24
0 4 55;0 0 -10;0 0 0;255 26;0 1;23 60.25
0 4 55;0 0 -10;0 0 0;255 26;0 1;23 60.48
0 4 55;0 0 -10;0 0 0;255 26;0 1;23 60.14
0 4 55;0 0 -10;0 0 0;255 26;0 1;23 59.72
0 4 57;0 0 -10;0 0 0;255 29;0 1;23 59.88
0 4 57;0 0 -10;0 0 0;255 29;0 1;23 59.74
0 4 57;0 0 -10;0 0 0;255 29;0 1;23 60.33
0 4 57;0 0 -10;0 0 0;255 29;0 1;23 60.43
0 4 59;0 0 -10;0 0 0;255 23;0 1;23 60.38
0 4 59;0 0 -10;0 0 0;255 23;0 1;23 60.51
0 4 59;0 0 -10;0 0 0;255 23;0 1;23 60.63
0 4 59;0 0 -10;0 0 0;255 23;0 1;23 60.37
0 5 1;0 0 -10;0 0 0;255 255;0 0;23 60.46
0 5 1;0 0 -10;0 0 0;255 255;0 0;23 60.33
0 5 1;0 0 -10;0 0 0;255 255;0 0;23 60.24
0 5 1;0 0 -10;0 0 0;255 255;0 0;23 60.65
0 5 3;0 0 -10;0 0 0;255 255;0 0;23 60.38
0 5 3;0 0 -10;0 0 0;255 255;0 0;23 60.61
0 5 3;0 0 -10;0 0 0;255 255;0 0;23 60.56
0 5 3;0 0 -10;0 0 0;255 255;0 0;23 60.48
0 5 3;0 0 -10;0 0 0;255 255;0 0;23 60.52
0 5 5;0 0 -10;0 0 0;255 255;0 0;23 60.62
0 5 5;0 0 -10;0 0 0;255 255;0 0;23 60.57
0 5 5;0 0 -10;0 0 0;255 255;0 0;23 60.33
0 5 5;0 0 -10;0 0 0;255 255;0 0;23 60.38
0 5 7;0 0 -10;0 0 0;255 255;0 0;23 60.61
0 5 7;0 0 -10;0 0 0;255 255;0 0;23 60.76
0 5 7;0 0 -10;0 0 0;255 255;0 0;23 60.56
0 5 7;0 0 -10;0 0 0;255 255;0 0;23 60.48
0 5 9;0 0 -10;0 0 0;255 255;0 0;23 60.76
0 5 9;0 0 -10;0 0 0;255 255;0 0;23 60.48
0 5 9;0 0 -10;0 0 0;255 255;0 0;23 60.52
0 5 9;0 0 -10;0 0 0;255 255;0 0;23 60.25
0 5 11;0 0 -10;0 0 0;255 255;0 0;23 60.47
0 5 11;0 0 -10;0 0 0;255 255;0 0;23 59.97
0 5 11;0 0 -10;0 0 0;255 255;0 0;23 59.86
0 5 11;0 0 -10;0 0 0;255 255;0 0;23 60.06
0 5 11;0 0 -10;0 0 0;255 255;0 0;23 59.86
0 5 13;0 0 -10;0 0 0;255 255;0 0;23 60.19
0 5 13;0 0 -10;0 0 0;255 255;0 0;23 60.26
0 5 13;0 0 -10;0 0 0;255 255;0 0;23 60.02
0 5 15;0 0 -10;0 0 0;255 255;0 0;23 60.15
0 5 15;0 0 -10;0 0 0;255 255;0 0;23 59.97
0 5 15;0 0 -10;0 0 0;255 255;0 0;23 60.1
0 5 17;0 0 -10;0 0 0;255 255;0 0;23 60.11
0 5 17;0 0 -10;0 0 0;255 255;0 0;23 59.86
0 5 17;0 0 -10;0 0 0;255 255;0 0;23 60.01
0 5 17;0 0 -10;0 0 0;255 255;0 0;23 59.96
0 5 19;0 0 -10;0 0 0;255 255;0 0;23 60.01
0 5 19;0 0 -10;0 0 0;255 255;0 0;23 60.15
0 5 19;0 0 -10;0 0 0;255 255;0 0;23 60.01
0 5 19;0 0 -10;0 0 0;255 255;0 0;23 60.06
0 5 19;0 0 -10;0 0 0;255 255;0 0;23 60.2
0 5 21;0 0 -10;0 0 0;255 255;0 0;23 60.34
0 5 21;0 0 -10;0 0 0;255 255;0 0;23 60.22
0 5 24;0 0 -10;0 0 0;255 255;0 0;23 60.3
0 5 24;0 0 -10;0 0 0;255 255;0 0;23 59.98
0 5 24;0 0 -10;0 0 0;255 255;0 0;23 60.18
0 5 24;0 0 -10;0 0 0;255 255;0 0;23 60.23
0 5 24;0 0 -10;0 0 0;255 255;0 0;23 60.34
0 5 26;0 0 -10;0 0 0;255 255;0 0;23 60.23
0 5 26;0 0 -10;0 0 0;255 255;0 0;23 60.43
0 5 26;0 0 -10;0 0 0;255 255;0 0;23 60.24
0 5 26;0 0 -10;0 0 0;255 255;0 0;23 60.34
0 5 28;0 0 -10;0 0 0;255 255;0 0;23 60.28
0 5 28;0 0 -10;0 0 0;255 255;0 0;23 60.29
0 5 28;0 0 -10;0 0 0;255 255;0 0;23 60.25
0 5 28;0 0 -10;0 0 0;255 255;0 0;23 60.2
0 5 30;0 0 -10;0 0 0;255 31;0 1;23 60.19
0 5 30;0 0 -10;0 0 0;255 31;0 1;23 60.52
0 5 30;0 0 -10;0 0 0;255 31;0 1;23 60.32
0 5 30;0 0 -10;0 0 0;255 31;0 1;23 60.24
0 5 32;0 0 -10;0 0 0;255 27;0 1;23 59.87
0 5 32;0 0 -10;0 0 0;255 27;0 1;23 60.2
0 5 32;0 0 -10;0 0 0;255 27;0 1;23 60.29
0 5 32;0 0 -10;0 0 0;255 27;0 1;23 60.37
0 5 34;0 0 -10;0 0 0;255 35;0 1;23 60.28
0 5 34;0 0 -10;0 0 0;255 35;0 1;23 60.33
0 5 34;0 0 -10;0 0 0;255 35;0 1;23 60.34
0 5 34;0 0 -10;0 0 0;255 35;0 1;23 60.52
0 5 36;0 0 -10;0 0 0;255 38;0 1;23 60.52
0 5 36;0 0 -10;0 0 0;255 38;0 1;23 60.76
0 5 36;0 0 -10;0 0 0;255 38;0 1;23 60.53
0 5 38;0 0 -10;0 0 0;255 43;0 1;23 60.23
0 5 38;0 0 -10;0 0 0;255 43;0 1;23 60.95
0 5 38;0 0 -10;0 0 0;255 43;0 1;23 60.48
0 5 38;0 0 -10;0 0 0;255 43;0 1;23 60.24
0 5 40;0 0 -10;0 0 0;255 255;0 0;23 60.52
0 5 40;0 0 -10;0 0 0;255 255;0 0;23 60.51
0 5 40;0 0 -10;0 0 0;255 255;0 0;23 60.29
0 5 40;0 0 -10;0 0 0;255 255;0 0;23 60.14
0 5 42;0 0 -10;0 0 0;255 255;0 0;23 60.65
0 5 42;0 0 -10;0 0 0;255 255;0 0;23 60.76
0 5 42;0 0 -10;0 0 0;255 255;0 0;23 60.46
0 5 42;0 0 -10;0 0 0;255 255;0 0;23 60.7
0 5 44;0 0 -10;0 0 0;255 255;0 0;23 60.57
0 5 44;0 0 -10;0 0 0;255 255;0 0;23 60.76
0 5 44;0 0 -10;0 0 0;255 255;0 0;23 60.75
0 5 44;0 0 -10;0 0 0;255 255;0 0;23 60.61
0 5 46;0 0 -10;0 0 0;255 255;0 0;23 60.66
0 5 46;0 0 -10;0 0 0;255 255;0 0;23 60.48
0 5 46;0 0 -10;0 0 0;255 255;0 0;23 60.37
0 5 46;0 0 -10;0 0 0;255 255;0 0;23 60.76
0 5 46;0 0 -10;0 0 0;255 255;0 0;23 60.52
0 5 48;0 0 -10;0 0 0;255 255;0 0;23 60.66
0 5 48;0 0 -10;0 0 0;255 255;0 0;23 60.42
0 5 48;0 0 -10;0 0 0;255 255;0 0;23 60.46
0 5 48;0 0 -10;0 0 0;255 255;0 0;23 60.42
0 5 50;0 0 -10;0 0 0;255 255;0 0;23 60.48
0 5 50;0 0 -10;0 0 0;255 255;0 0;23 60.81
0 5 50;0 0 -10;0 0 0;255 255;0 0;23 60.53
0 5 50;0 0 -10;0 0 0;255 255;0 0;23 60.8
0 5 52;0 0 -10;0 0 0;255 255;0 0;23 60.38
0 5 52;0 0 -10;0 0 0;255 255;0 0;23 60.66
0 5 52;0 0 -10;0 0 0;255 255;0 0;23 60.75
0 5 52;0 0 -10;0 0 0;255 255;0 0;23 60.91
0 5 52;0 0 -10;0 0 0;255 255;0 0;23 60.66
0 5 54;0 0 -10;0 0 0;255 59;0 1;23 60.6
0 5 54;0 0 -10;0 0 0;255 59;0 1;23 60.77
0 5 54;0 0 -10;0 0 0;255 59;0 1;23 60.42
0 5 54;0 0 -10;0 0 0;255 59;0 1;23 60.61
0 5 56;0 0 -10;0 0 0;255 62;0 1;23 60.43
0 5 56;0 0 -10;0 0 0;255 62;0 1;23 60.56
0 5 56;0 0 -10;0 0 0;255 62;0 1;23 60.61
0 5 56;0 0 -10;0 0 0;255 62;0 1;23 60.43
0 5 58;0 0 -10;0 0 0;255 255;0 0;23 60.57
0 5 58;0 0 -10;0 0 0;255 255;0 0;23 60.52
0 5 58;0 0 -10;0 0 0;255 255;0 0;23 60.58
0 5 58;0 0 -10;0 0 0;255 255;0 0;23 60.66
0 6 0;0 0 -10;0 0 0;255 255;0 0;23 60.75
0 6 0;0 0 -10;0 0 0;255 255;0 0;23 60.43
0 6 0;0 0 -10;0 0 0;255 255;0 0;23 60.85
0 6 0;0 0 -10;0 0 0;255 255;0 0;23 60.7
0 6 2;0 0 -10;0 0 0;255 255;0 0;23 60.45
0 6 2;0 0 -10;0 0 0;255 255;0 0;23 60.76
0 6 2;0 0 -10;0 0 0;255 255;0 0;23 60.95
0 6 2;0 0 -10;0 0 0;255 255;0 0;23 60.46
0 6 2;0 0 -10;0 0 0;255 255;0 0;23 60.75
0 6 4;0 0 -10;0 0 0;255 255;0 0;23 60.77
0 6 4;0 0 -10;0 0 0;255 255;0 0;23 60.72
0 6 4;0 0 -10;0 0 0;255 255;0 0;23 60.56
0 6 6;0 0 -10;0 0 0;255 133;0 1;23 60.66
0 6 6;0 0 -10;0 0 0;255 133;0 1;23 60.75
0 6 6;0 0 -10;0 0 0;255 133;0 1;23 60.67
0 6 6;0 0 -10;0 0 0;255 133;0 1;23 60.75
0 6 8;0 0 -10;0 0 0;255 255;0 0;23 60.75
0 6 8;0 0 -10;0 0 0;255 255;0 0;23 60.71
0 6 8;0 0 -10;0 0 0;255 255;0 0;23 60.57
0 6 8;0 0 -10;0 0 0;255 255;0 0;23 60.51
0 6 10;0 0 -10;0 0 0;255 255;0 0;23 60.71
0 6 10;0 0 -10;0 0 0;255 255;0 0;23 60.47
0 6 10;0 0 -10;0 0 0;255 255;0 0;23 60.66
0 6 10;0 0 -10;0 0 0;255 255;0 0;23 60.8
0 6 10;0 0 -10;0 0 0;255 255;0 0;23 60.56
0 6 12;0 0 -10;0 0 0;255 255;0 0;23 60.91
0 6 12;0 0 -10;0 0 0;255 255;0 0;23 60.72
0 6 12;0 0 -10;0 0 0;255 255;0 0;23 60.86
0 6 12;0 0 -10;0 0 0;255 255;0 0;23 60.76
0 6 14;0 0 -10;0 0 0;255 255;0 0;23 60.62
0 6 14;0 0 -10;0 0 0;255 255;0 0;23 60.65
0 6 14;0 0 -10;0 0 0;255 255;0 0;23 60.81
0 6 14;0 0 -10;0 0 0;255 255;0 0;23 60.63
0 6 16;0 0 -10;0 0 0;255 255;0 0;23 60.8
0 6 16;0 0 -10;0 0 0;255 255;0 0;23 60.56
0 6 16;0 0 -10;0 0 0;255 255;0 0;23 60.41
0 6 16;0 0 -10;0 0 0;255 255;0 0;23 60.8
0 6 18;0 0 -10;0 0 0;255 255;0 0;23 60.75
0 6 18;0 0 -10;0 0 0;255 255;0 0;23 60.6
0 6 18;0 0 -10;0 0 0;255 255;0 0;23 60.52
0 6 18;0 0 -10;0 0 0;255 255;0 0;23 60.75
0 6 20;0 0 -10;0 0 0;255 255;0 0;23 61.01
0 6 20;0 0 -10;0 0 0;255 255;0 0;23 60.95
0 6 20;0 0 -10;0 0 0;255 255;0 0;23 60.72
0 6 20;0 0 -10;0 0 0;255 255;0 0;23 60.71
0 6 22;0 0 -10;0 0 0;255 255;0 0;23 60.8
0 6 22;0 0 -10;0 0 0;255 255;0 0;23 60.81
0 6 22;0 0 -10;0 0 0;255 255;0 0;23 61.25
0 6 22;0 0 -10;0 0 0;255 255;0 0;23 61.01
0 6 22;0 0 -10;0 0 0;255 255;0 0;23 61.35
0 6 24;0 0 -10;0 0 0;255 255;0 0;23 61.1
0 6 24;0 0 -10;0 0 0;255 255;0 0;23 61.16
0 6 24;0 0 -10;0 0 0;255 255;0 0;23 61.1
0 6 24;0 0 -10;0 0 0;255 255;0 0;23 60.81
0 6 26;0 0 -10;0 0 0;255 255;0 0;23 60.75
0 6 26;0 0 -10;0 0 0;255 255;0 0;23 60.91
0 6 26;0 0 -10;0 0 0;255 255;0 0;23 60.75
0 6 28;0 0 -10;0 0 0;255 255;0 0;23 60.7
0 6 28;0 0 -10;0 0 0;255 255;0 0;23 60.39
0 6 28;0 0 -10;0 0 0;255 255;0 0;23 60.81
0 6 28;0 0 -10;0 0 0;255 255;0 0;23 60.75
0 6 28;0 0 -10;0 0 0;255 255;0 0;23 60.76
0 6 31;0 0 -10;0 0 0;255 255;0 0;23 60.7
0 6 31;0 0 -10;0 0 0;255 255;0 0;23 60.76
0 6 31;0 0 -10;0 0 0;255 255;0 0;23 60.91
0 6 31;0 0 -10;0 0 0;255 255;0 0;23 60.7
0 6 33;0 0 -10;0 0 0;255 255;0 0;23 60.71
0 6 33;0 0 -10;0 0 0;255 255;0 0;23 60.85
0 6 33;0 0 -10;0 0 0;255 255;0 0;23 61.0
0 6 33;0 0 -10;0 0 0;255 255;0 0;23 61.15
0 6 35;0 0 -10;0 0 0;255 255;0 0;23 60.85
0 6 35;0 0 -10;0 0 0;255 255;0 0;23 60.8
0 6 35;0 0 -10;0 0 0;255 255;0 0;23 60.61
0 6 35;0 0 -10;0 0 0;255 255;0 0;23 61.25
0 6 35;0 0 -10;0 0 0;255 255;0 0;23 60.81
0 6 37;0 0 -10;0 0 0;255 255;0 0;23 61.35
0 6 37;0 0 -10;0 0 0;255 255;0 0;23 61.01
0 6 37;0 0 -10;0 0 0;255 255;0 0;23 61.3
0 6 37;0 0 -10;0 0 0;255 255;0 0;23 61.0
0 6 39;0 0 -10;0 0 0;255 255;0 0;23 60.8
0 6 39;0 0 -10;0 0 0;255 255;0 0;23 61.2
0 6 39;0 0 -10;0 0 0;255 255;0 0;23 60.75
0 6 39;0 0 -10;0 0 0;255 255;0 0;23 60.65
0 6 39;0 0 -10;0 0 0;255 255;0 0;23 61.1
0 6 41;0 0 -10;0 0 0;255 255;0 0;23 60.8
0 6 41;0 0 -10;0 0 0;255 255;0 0;23 60.71
0 6 41;0 0 -10;0 0 0;255 255;0 0;23 61.0
0 6 41;0 0 -10;0 0 0;255 255;0 0;23 61.55
0 6 43;0 0 -10;0 0 0;255 255;0 0;23 61.55
0 6 43;0 0 -10;0 0 0;255 255;0 0;23 61.65
0 6 43;0 0 -10;0 0 0;255 255;0 0;23 61.6
0 6 43;0 0 -10;0 0 0;255 255;0 0;23 61.65
0 6 45;0 0 -10;0 0 0;255 255;0 0;23 61.75
0 6 45;0 0 -10;0 0 0;255 255;0 0;23 61.45
0 6 45;0 0 -10;0 0 0;255 255;0 0;23 61.55
0 6 45;0 0 -10;0 0 0;255 255;0 0;23 61.75
0 6 47;0 0 -10;0 0 0;255 255;0 0;23 62.0
0 6 47;0 0 -10;0 0 0;255 255;0 0;23 61.65
0 6 47;0 0 -10;0 0 0;255 255;0 0;23 61.6
0 6 47;0 0 -10;0 0 0;255 255;0 0;23 61.8
0 6 49;0 0 -10;0 0 0;255 255;0 0;23 61.5
0 6 49;0 0 -10;0 0 0;255 255;0 0;23 61.9
0 6 49;0 0 -10;0 0 0;255 255;0 0;23 61.95
0 6 49;0 0 -10;0 0 0;255 255;0 0;23 61.85
0 6 51;0 0 -10;0 0 0;255 255;0 0;23 61.61
0 6 51;0 0 -10;0 0 0;255 255;0 0;23 62.15
0 6 51;0 0 -10;0 0 0;255 255;0 0;23 61.6
0 6 51;0 0 -10;0 0 0;255 255;0 0;23 61.5
0 6 53;0 0 -10;0 0 0;255 255;0 0;23 61.45
0 6 53;0 0 -10;0 0 0;255 255;0 0;23 61.9
0 6 53;0 0 -10;0 0 0;255 255;0 0;23 61.65
0 6 53;0 0 -10;0 0 0;255 255;0 0;23 61.55
0 6 53;0 0 -10;0 0 0;255 255;0 0;23 61.65
0 6 55;0 0 -10;0 0 0;255 255;0 0;23 61.65
0 6 55;0 0 -10;0 0 0;255 255;0 0;23 61.35
0 6 55;0 0 -10;0 0 0;255 255;0 0;23 61.16
0 6 55;0 0 -10;0 0 0;255 255;0 0;23 61.3
0 6 57;0 0 -10;0 0 0;255 255;0 0;23 61.75
0 6 57;0 0 -10;0 0 0;255 255;0 0;23 61.9
0 6 57;0 0 -10;0 0 0;255 255;0 0;23 61.8
0 6 57;0 0 -10;0 0 0;255 255;0 0;23 61.65
0 6 59;0 0 -10;0 0 0;255 255;0 0;23 61.7
0 6 59;0 0 -10;0 0 0;255 255;0 0;23 61.4
0 6 59;0 0 -10;0 0 0;255 255;0 0;23 61.6
0 6 59;0 0 -10;0 0 0;255 255;0 0;23 61.85
0 7 1;0 0 -10;0 0 0;255 255;0 0;23 61.6
0 7 1;0 0 -10;0 0 0;255 255;0 0;23 62.0
0 7 1;0 0 -10;0 0 0;255 255;0 0;23 61.8
0 7 1;0 0 -10;0 0 0;255 255;0 0;23 61.95
0 7 1;0 0 -10;0 0 0;255 255;0 0;23 61.75
0 7 3;0 0 -10;0 0 0;255 255;0 0;23 61.8
0 7 3;0 0 -10;0 0 0;255 255;0 0;23 62.0
0 7 3;0 0 -10;0 0 0;255 255;0 0;23 61.85
0 7 3;0 0 -10;0 0 0;255 255;0 0;23 61.95
0 7 5;0 0 -10;0 0 0;255 255;0 0;23 61.95
0 7 5;0 0 -10;0 0 0;255 255;0 0;23 61.9
0 7 5;0 0 -10;0 0 0;255 255;0 0;23 61.65
0 7 5;0 0 -10;0 0 0;255 255;0 0;23 61.35
0 7 7;0 0 -10;0 0 0;255 255;0 0;23 61.25
0 7 7;0 0 -10;0 0 0;255 255;0 0;23 61.21
0 7 7;0 0 -10;0 0 0;255 255;0 0;23 61.15
0 7 9;0 0 -10;0 0 0;255 255;0 0;23 61.35
0 7 9;0 0 -10;0 0 0;255 255;0 0;23 61.25
0 7 9;0 0 -10;0 0 0;255 255;0 0;23 61.1
0 7 9;0 0 -10;0 0 0;255 255;0 0;23 61.4
0 7 9;0 0 -10;0 0 0;255 255;0 0;23 61.25
0 7 11;0 0 -10;0 0 0;255 255;0 0;23 61.65
0 7 11;0 0 -10;0 0 0;255 255;0 0;23 61.25
0 7 11;0 0 -10;0 0 0;255 255;0 0;23 61.35
0 7 11;0 0 -10;0 0 0;255 255;0 0;23 61.3
0 7 13;0 0 -10;0 0 0;255 255;0 0;23 61.55
0 7 13;0 0 -10;0 0 0;255 255;0 0;23 61.6
0 7 13;0 0 -10;0 0 0;255 255;0 0;23 61.4
0 7 13;0 0 -10;0 0 0;255 255;0 0;23 61.3
0 7 15;0 0 -10;0 0 0;255 255;0 0;23 61.5
0 7 15;0 0 -10;0 0 0;255 255;0 0;23 61.2
0 7 15;0 0 -10;0 0 0;255 255;0 0;23 61.25
0 7 15;0 0 -10;0 0 0;255 255;0 0;23 61.55
0 7 15;0 0 -10;0 0 0;255 255;0 0;23 61.3
0 7 17;0 0 -10;0 0 0;255 255;0 0;23 61.7
0 7 17;0 0 -10;0 0 0;255 255;0 0;23 61.5
0 7 17;0 0 -10;0 0 0;255 255;0 0;23 61.3
0 7 17;0 0 -10;0 0 0;255 255;0 0;23 61.45
0 7 19;0 0 -10;0 0 0;255 255;0 0;23 61.9
0 7 19;0 0 -10;0 0 0;255 255;0 0;23 61.5
0 7 19;0 0 -10;0 0 0;255 255;0 0;23 61.4
0 7 21;0 0 -10;0 0 0;255 255;0 0;23 61.5
0 7 21;0 0 -10;0 0 0;255 255;0 0;23 61.45
0 7 21;0 0 -10;0 0 0;255 255;0 0;23 61.3
0 7 23;0 0 -10;0 0 0;255 255;0 0;23 61.6
0 7 23;0 0 -10;0 0 0;255 255;0 0;23 61.35
0 7 23;0 0 -10;0 0 0;255 255;0 0;23 61.5
0 7 23;0 0 -10;0 0 0;255 255;0 0;23 61.35
0 7 25;0 0 -10;0 0 0;255 255;0 0;23 61.45
0 7 25;0 0 -10;0 0 0;255 255;0 0;23 61.55
0 7 25;0 0 -10;0 0 0;255 255;0 0;23 61.2
0 7 25;0 0 -10;0 0 0;255 255;0 0;23 61.15
0 7 27;0 0 -10;0 0 0;255 255;0 0;23 61.4
0 7 27;0 0 -10;0 0 0;255 255;0 0;23 61.55
0 7 27;0 0 -10;0 0 0;255 255;0 0;23 61.1
0 7 27;0 0 -10;0 0 0;255 255;0 0;23 61.65
0 7 29;0 0 -10;0 0 0;255 255;0 0;23 61.9
0 7 29;0 0 -10;0 0 0;255 255;0 0;23 61.3
0 7 29;0 0 -10;0 0 0;255 255;0 0;23 61.6
0 7 31;0 0 -10;0 0 0;255 255;0 0;23 61.7
0 7 31;0 0 -10;0 0 0;255 255;0 0;23 61.75
0 7 31;0 0 -10;0 0 0;255 255;0 0;23 61.7
0 7 33;0 0 -10;0 0 0;255 255;0 0;23 61.9
0 7 33;0 0 -10;0 0 0;255 255;0 0;23 61.7
0 7 33;0 0 -10;0 0 0;255 255;0 0;23 61.8
0 7 33;0 0 -10;0 0 0;255 255;0 0;23 61.55
0 7 35;0 0 -10;0 0 0;255 255;0 0;23 61.9
0 7 35;0 0 -10;0 0 0;255 255;0 0;23 61.55
0 7 35;0 0 -10;0 0 0;255 255;0 0;23 61.45
0 7 35;0 0 -10;0 0 0;255 255;0 0;23 61.75
0 7 38;0 0 -10;0 0 0;255 255;0 0;23 61.45
0 7 38;0 0 -10;0 0 0;255 255;0 0;23 61.55
0 7 38;0 0 -10;0 0 0;255 255;0 0;23 61.7
0 7 38;0 0 -10;0 0 0;255 255;0 0;23 61.8
0 7 40;0 0 -10;0 0 0;255 255;0 0;23 61.8
0 7 40;0 0 -10;0 0 0;255 255;0 0;23 61.75
0 7 40;0 0 -10;0 0 0;255 255;0 0;23 61.7
0 7 40;0 0 -10;0 0 0;255 255;0 0;23 61.6
0 7 40;0 0 -10;0 0 0;255 255;0 0;23 61.8
0 7 42;0 0 -10;0 0 0;255 255;0 0;23 61.6
0 7 42;0 0 -10;0 0 0;255 255;0 0;23 61.75
0 7 42;0 0 -10;0 0 0;255 255;0 0;23 61.9
0 7 42;0 0 -10;0 0 0;255 255;0 0;23 61.85
0 7 44;0 0 -10;0 0 0;255 255;0 0;23 61.6
0 7 44;0 0 -10;0 0 0;255 255;0 0;23 61.8
0 7 44;0 0 -10;0 0 0;255 255;0 0;23 61.85
0 7 46;0 0 -10;0 0 0;255 255;0 0;23 61.85
0 7 46;0 0 -10;0 0 0;255 255;0 0;23 61.95
0 7 46;0 0 -10;0 0 0;255 255;0 0;23 61.75
0 7 48;0 0 -10;0 0 0;255 255;0 0;23 61.95
0 7 48;0 0 -10;0 0 0;255 255;0 0;23 61.65
0 7 48;0 0 -10;0 0 0;255 255;0 0;23 61.8
0 7 50;0 0 -10;0 0 0;255 255;0 0;23 61.6
0 7 50;0 0 -10;0 0 0;255 255;0 0;23 61.8
0 7 50;0 0 -10;0 0 0;255 255;0 0;23 61.85
0 7 50;0 0 -10;0 0 0;255 255;0 0;23 61.7
0 7 52;0 0 -10;0 0 0;255 255;0 0;23 61.9
0 7 52;0 0 -10;0 0 0;255 255;0 0;23 61.6
0 7 52;0 0 -10;0 0 0;255 255;0 0;23 61.9
0 7 52;0 0 -10;0 0 0;255 255;0 0;23 61.85
0 7 54;0 0 -10;0 0 0;255 255;0 0;23 61.75
0 7 54;0 0 -10;0 0 0;255 255;0 0;23 61.55
0 7 54;0 0 -10;0 0 0;255 255;0 0;23 61.8
0 7 54;0 0 -10;0 0 0;255 255;0 0;23 61.85
0 7 56;0 0 -10;0 0 0;255 255;0 0;23 61.8
0 7 56;0 0 -10;0 0 0;255 255;0 0;23 62.05
0 7 56;0 0 -10;0 0 0;255 255;0 0;23 61.7
0 7 56;0 0 -10;0 0 0;255 255;0 0;23 62.0
0 7 58;0 0 -10;0 0 0;255 255;0 0;23 61.75
0 7 58;0 0 -10;0 0 0;255 255;0 0;23 61.8
0 7 58;0 0 -10;0 0 0;255 255;0 0;23 61.95
0 7 58;0 0 -10;0 0 0;255 255;0 0;23 62.2
0 7 58;0 0 -10;0 0 0;255 255;0 0;23 61.85
0 8 0;0 0 -10;0 0 0;255 255;0 0;23 61.7
0 8 0;0 0 -10;0 0 0;255 255;0 0;23 61.75
0 8 0;0 0 -10;0 0 0;255 255;0 0;23 62.3
0 8 0;0 0 -10;0 0 0;255 255;0 0;23 62.15
0 8 2;0 0 -10;0 0 0;255 255;0 0;23 62.25
0 8 2;0 0 -10;0 0 0;255 255;0 0;23 62.1
0 8 2;0 0 -10;0 0 0;255 255;0 0;23 62.4
0 8 2;0 0 -10;0 0 0;255 255;0 0;23 62.15
0 8 4;0 0 -10;0 0 0;255 255;0 0;23 62.35
0 8 4;0 0 -10;0 0 0;255 255;0 0;23 62.2
0 8 4;0 0 -10;0 0 0;255 255;0 0;23 62.3
0 8 6;0 0 -10;0 0 0;255 255;0 0;23 62.35
0 8 6;0 0 -10;0 0 0;255 255;0 0;23 62.15
0 8 8;0 0 -10;0 0 0;255 255;0 0;23 62.25
0 8 8;0 0 -10;0 0 0;255 255;0 0;23 62.6
0 8 8;0 0 -10;0 0 0;255 255;0 0;23 62.25
0 8 8;0 0 -10;0 0 0;255 255;0 0;23 62.45
0 8 10;0 0 -10;0 0 0;255 255;0 0;23 62.24
0 8 10;0 0 -10;0 0 0;255 255;0 0;23 62.25
0 8 10;0 0 -10;0 0 0;255 255;0 0;23 62.45
0 8 10;0 0 -10;0 0 0;255 255;0 0;23 62.15
0 8 12;0 0 -10;0 0 0;255 255;0 0;23 62.45
0 8 12;0 0 -10;0 0 0;255 255;0 0;23 62.5
0 8 12;0 0 -10;0 0 0;255 255;0 0;23 62.2
0 8 14;0 0 -10;0 0 0;255 255;0 0;23 62.4
0 8 14;0 0 -10;0 0 0;255 255;0 0;23 62.3
0 8 14;0 0 -10;0 0 0;255 255;0 0;23 62.45
0 8 14;0 0 -10;0 0 0;255 255;0 0;23 62.7
0 8 16;0 0 -10;0 0 0;255 255;0 0;23 62.35
0 8 16;0 0 -10;0 0 0;255 255;0 0;23 62.1
0 8 16;0 0 -10;0 0 0;255 255;0 0;23 62.35
0 8 16;0 0 -10;0 0 0;255 255;0 0;23 62.25
0 8 18;0 0 -10;0 0 0;255 255;0 0;24 62.3
0 8 18;0 0 -10;0 0 0;255 255;0 0;24 62.2
0 8 18;0 0 -10;0 0 0;255 255;0 0;24 62.45
0 0 3;0 0 -10;0 0 0;255 255;0 0;23 61.85
0 0 3;0 0 -10;0 0 0;255 255;0 0;23 61.65
0 0 3;0 0 -10;0 0 0;255 255;0 0;23 61.75
0 0 3;0 0 -10;0 0 0;255 255;0 0;23 61.65
0 0 5;0 0 -10;0 0 0;255 255;0 0;23 62.05
0 0 5;0 0 -10;0 0 0;255 255;0 0;23 61.9
0 0 5;0 0 -10;0 0 0;255 255;0 0;23 62.25
0 0 7;0 0 -10;0 0 0;255 255;0 0;23 61.75
0 0 7;0 0 -10;0 0 0;255 255;0 0;23 62.3
0 0 7;0 0 -10;0 0 0;255 255;0 0;23 62.05
0 0 9;0 0 -10;0 0 0;255 255;0 0;24 62.2
0 0 9;0 0 -10;0 0 0;255 255;0 0;24 62.0
0 0 9;0 0 -10;0 0 0;255 255;0 0;24 62.15
0 0 11;0 0 -10;0 0 0;255 255;0 0;23 62.15
0 0 11;0 0 -10;0 0 0;255 255;0 0;23 62.44
0 0 11;0 0 -10;0 0 0;255 255;0 0;23 62.74
0 0 11;0 0 -10;0 0 0;255 255;0 0;23 62.25
0 0 13;0 0 -10;0 0 0;255 255;0 0;23 62.25
0 0 13;0 0 -10;0 0 0;255 255;0 0;23 62.45
0 0 13;0 0 -10;0 0 0;255 255;0 0;23 62.55
0 0 13;0 0 -10;0 0 0;255 255;0 0;23 63.0
0 0 15;0 0 -10;0 0 0;255 255;0 0;23 62.6
0 0 15;0 0 -10;0 0 0;255 255;0 0;23 62.68
0 0 15;0 0 -10;0 0 0;255 255;0 0;23 62.64
0 0 17;0 0 -10;0 0 0;255 255;0 0;23 62.65
0 0 17;0 0 -10;0 0 0;255 255;0 0;23 62.45
0 0 17;0 0 -10;0 0 0;255 255;0 0;23 62.4
0 0 19;0 0 -10;0 0 0;255 255;0 0;23 62.25
0 0 19;0 0 -10;0 0 0;255 255;0 0;23 62.5
0 0 19;0 0 -10;0 0 0;255 255;0 0;23 62.35
0 0 19;0 0 -10;0 0 0;255 255;0 0;23 62.2
0 0 19;0 0 -10;0 0 0;255 255;0 0;23 62.9
0 0 21;0 0 -10;0 0 0;255 255;0 0;23 62.5
0 0 21;0 0 -10;0 0 0;255 255;0 0;23 62.3
0 0 21;0 0 -10;0 0 0;255 255;0 0;23 62.15
0 0 23;0 0 -10;0 0 0;255 255;0 0;23 62.15
0 0 23;0 0 -10;0 0 0;255 255;0 0;23 62.33
0 0 23;0 0 -10;0 0 0;255 255;0 0;23 62.25
0 0 23;0 0 -10;0 0 0;255 255;0 0;23 62.64
0 0 25;0 0 -10;0 0 0;255 255;0 0;23 62.5
0 0 25;0 0 -10;0 0 0;255 255;0 0;23 63.27
0 0 25;0 0 -10;0 0 0;255 255;0 0;23 62.98
0 0 25;0 0 -10;0 0 0;255 255;0 0;23 62.5
0 0 27;0 0 -10;0 0 0;255 255;0 0;23 62.35
0 0 27;0 0 -10;0 0 0;255 255;0 0;23 62.5
0 0 27;0 0 -10;0 0 0;255 255;0 0;23 62.8
0 0 27;0 0 -10;0 0 0;255 255;0 0;23 62.45
0 0 29;0 0 -10;0 0 0;255 255;0 0;23 62.5
0 0 29;0 0 -10;0 0 0;255 255;0 0;23 62.99
0 0 29;0 0 -10;0 0 0;255 255;0 0;23 62.94
0 0 31;0 0 -10;0 0 0;255 255;0 0;24 62.7
0 0 31;0 0 -10;0 0 0;255 255;0 0;24 62.74
0 0 31;0 0 -10;0 0 0;255 255;0 0;24 62.7
0 0 31;0 0 -10;0 0 0;255 255;0 0;24 62.6
0 0 33;0 0 -10;0 0 0;255 255;0 0;23 62.54
0 0 33;0 0 -10;0 0 0;255 255;0 0;23 62.8
0 0 33;0 0 -10;0 0 0;255 255;0 0;23 62.85
0 0 33;0 0 -10;0 0 0;255 255;0 0;23 62.54
0 0 35;0 0 -10;0 0 0;255 255;0 0;23 62.35
0 0 35;0 0 -10;0 0 0;255 255;0 0;23 62.84
0 0 35;0 0 -10;0 0 0;255 255;0 0;23 62.69
0 0 37;0 0 -10;0 0 0;255 255;0 0;24 62.55
0 0 37;0 0 -10;0 0 0;255 255;0 0;24 62.25
0 0 37;0 0 -10;0 0 0;255 255;0 0;24 63.02
0 0 37;0 0 -10;0 0 0;255 255;0 0;24 62.73
0 0 39;0 0 -10;0 0 0;255 255;0 0;23 62.8
0 0 39;0 0 -10;0 0 0;255 255;0 0;23 62.4
0 0 39;0 0 -10;0 0 0;255 255;0 0;23 62.74
0 0 39;0 0 -10;0 0 0;255 255;0 0;23 62.59
0 0 41;0 0 -10;0 0 0;255 255;0 0;23 62.54
0 0 41;0 0 -10;0 0 0;255 255;0 0;23 62.9
0 0 41;0 0 -10;0 0 0;255 255;0 0;23 62.4
0 0 41;0 0 -10;0 0 0;255 255;0 0;23 62.95
0 0 43;0 0 -10;0 0 0;255 255;0 0;23 62.5
0 0 43;0 0 -10;0 0 0;255 255;0 0;23 62.69
0 0 43;0 0 -10;0 0 0;255 255;0 0;23 62.98
0 0 45;0 0 -10;0 0 0;255 255;0 0;23 62.5
0 0 45;0 0 -10;0 0 0;255 255;0 0;23 62.9
0 0 45;0 0 -10;0 0 0;255 255;0 0;23 62.79
0 0 47;0 0 -10;0 0 0;255 255;0 0;23 63.0
0 0 47;0 0 -10;0 0 0;255 255;0 0;23 62.75
0 0 47;0 0 -10;0 0 0;255 255;0 0;23 62.78
0 0 47;0 0 -10;0 0 0;255 255;0 0;23 63.46
0 0 49;0 0 -10;0 0 0;255 255;0 0;24 63.17
0 0 49;0 0 -10;0 0 0;255 255;0 0;24 63.35
0 0 49;0 0 -10;0 0 0;255 255;0 0;24 63.37
0 0 49;0 0 -10;0 0 0;255 255;0 0;24 63.54
0 0 49;0 0 -10;0 0 0;255 255;0 0;24 63.41
0 0 51;0 0 -10;0 0 0;255 255;0 0;23 62.99
0 0 51;0 0 -10;0 0 0;255 255;0 0;23 63.28
0 0 51;0 0 -10;0 0 0;255 255;0 0;23 63.36
0 0 51;0 0 -10;0 0 0;255 255;0 0;23 63.32
0 0 54;0 0 -10;0 0 0;255 255;0 0;24 63.35
0 0 54;0 0 -10;0 0 0;255 255;0 0;24 63.04
0 0 58;0 0 -10;0 0 0;255 255;0 0;24 63.4
0 1 2;0 0 -10;0 0 0;255 255;0 0;24 63.76
0 1 16;0 0 -10;0 0 0;255 255;0 0;24 63.67
0 1 22;0 0 -10;0 0 0;255 255;0 0;23 65.15
0 1 22;0 0 -10;0 0 0;255 255;0 0;23 64.7
0 1 22;0 0 -10;0 0 0;255 255;0 0;23 64.3
0 1 24;0 0 -10;0 0 0;255 255;0 0;24 63.93
0 1 24;0 0 -10;0 0 0;255 255;0 0;24 63.91
0 1 24;0 0 -10;0 0 0;255 255;0 0;24 63.93
0 1 24;0 0 -10;0 0 0;255 255;0 0;24 64.01
0 1 26;0 0 -10;0 0 0;255 255;0 0;24 63.73
0 1 26;0 0 -10;0 0 0;255 255;0 0;24 64.21
0 1 26;0 0 -10;0 0 0;255 255;0 0;24 64.11
0 1 26;0 0 -10;0 0 0;255 255;0 0;24 64.25
0 1 28;0 0 -10;0 0 0;255 255;0 0;24 63.87
0 1 28;0 0 -10;0 0 0;255 255;0 0;24 63.88
0 1 28;0 0 -10;0 0 0;255 255;0 0;24 64.31
0 1 28;0 0 -10;0 0 0;255 255;0 0;24 64.41
0 1 30;0 0 -10;0 0 0;255 255;0 0;23 64.4
0 1 30;0 0 -10;0 0 0;255 255;0 0;23 64.71
0 1 30;0 0 -10;0 0 0;255 255;0 0;23 64.7
0 1 32;0 0 -10;0 0 0;255 255;0 0;24 64.31
0 1 32;0 0 -10;0 0 0;255 255;0 0;24 64.85
0 1 32;0 0 -10;0 0 0;255 255;0 0;24 64.4
0 1 32;0 0 -10;0 0 0;255 255;0 0;24 64.31
0 1 34;0 0 -10;0 0 0;255 255;0 0;24 64.27
0 1 34;0 0 -10;0 0 0;255 255;0 0;24 64.5
0 1 34;0 0 -10;0 0 0;255 255;0 0;24 63.92
0 1 34;0 0 -10;0 0 0;255 255;0 0;24 64.11
0 1 36;0 0 -10;0 0 0;255 255;0 0;24 64.06
0 1 36;0 0 -10;0 0 0;255 255;0 0;24 64.3
0 1 36;0 0 -10;0 0 0;255 255;0 0;24 63.72
0 1 36;0 0 -10;0 0 0;255 255;0 0;24 63.68
0 1 38;0 0 -10;0 0 0;255 255;0 0;24 63.49
0 1 38;0 0 -10;0 0 0;255 255;0 0;24 63.68
0 1 38;0 0 -10;0 0 0;255 255;0 0;24 63.87
0 1 38;0 0 -10;0 0 0;255 255;0 0;24 64.21
0 1 40;0 0 -10;0 0 0;255 255;0 0;24 64.06
0 1 40;0 0 -10;0 0 0;255 255;0 0;24 63.53
0 1 40;0 0 -10;0 0 0;255 255;0 0;24 63.96
0 1 40;0 0 -10;0 0 0;255 255;0 0;24 64.02
0 1 42;0 0 -10;0 0 0;255 255;0 0;24 63.82
0 1 42;0 0 -10;0 0 0;255 255;0 0;24 63.97
0 1 42;0 0 -10;0 0 0;255 255;0 0;24 64.2
0 1 42;0 0 -10;0 0 0;255 255;0 0;24 64.16
0 1 44;0 0 -10;0 0 0;255 255;0 0;23 64.11
0 1 44;0 0 -10;0 0 0;255 255;0 0;23 63.64
0 1 44;0 0 -10;0 0 0;255 255;0 0;23 64.31
0 1 46;0 0 -10;0 0 0;255 255;0 0;24 64.16
0 1 46;0 0 -10;0 0 0;255 255;0 0;24 63.92
0 1 46;0 0 -10;0 0 0;255 255;0 0;24 63.97
0 1 46;0 0 -10;0 0 0;255 255;0 0;24 64.31
0 1 48;0 0 -10;0 0 0;255 255;0 0;24 64.35
0 1 48;0 0 -10;0 0 0;255 255;0 0;24 64.05
0 1 48;0 0 -10;0 0 0;255 255;0 0;24 63.88
0 1 50;0 0 -10;0 0 0;255 255;0 0;24 64.01
0 1 50;0 0 -10;0 0 0;255 255;0 0;24 63.82
0 1 50;0 0 -10;0 0 0;255 255;0 0;24 64.21
0 1 50;0 0 -10;0 0 0;255 255;0 0;24 64.65
0 1 52;0 0 -10;0 0 0;255 255;0 0;24 63.87
0 1 52;0 0 -10;0 0 0;255 255;0 0;24 64.16
0 1 52;0 0 -10;0 0 0;255 255;0 0;24 64.21
0 1 52;0 0 -10;0 0 0;255 255;0 0;24 64.36
0 1 54;0 0 -10;0 0 0;255 255;0 0;24 64.03
0 1 54;0 0 -10;0 0 0;255 255;0 0;24 64.55
0 1 54;0 0 -10;0 0 0;255 255;0 0;24 64.05
0 1 56;0 0 -10;0 0 0;255 255;0 0;24 64.45
0 1 56;0 0 -10;0 0 0;255 255;0 0;24 64.35
0 1 58;0 0 -10;0 0 0;255 255;0 0;24 64.46
0 1 58;0 0 -10;0 0 0;255 255;0 0;24 64.31
0 1 58;0 0 -10;0 0 0;255 255;0 0;24 64.45
0 2 1;0 0 -10;0 0 0;255 255;0 0;24 63.97
0 2 1;0 0 -10;0 0 0;255 255;0 0;24 64.35
0 2 1;0 0 -10;0 0 0;255 255;0 0;24 64.36
0 2 1;0 0 -10;0 0 0;255 255;0 0;24 64.6
0 2 3;0 0 -10;0 0 0;255 255;0 0;24 63.97
0 2 3;0 0 -10;0 0 0;255 255;0 0;24 64.21
0 2 3;0 0 -10;0 0 0;255 255;0 0;24 64.31
0 2 3;0 0 -10;0 0 0;255 255;0 0;24 63.74
0 2 5;0 0 -10;0 0 0;255 255;0 0;24 64.4
0 2 5;0 0 -10;0 0 0;255 255;0 0;24 64.26
0 2 5;0 0 -10;0 0 0;255 255;0 0;24 64.4
0 2 5;0 0 -10;0 0 0;255 255;0 0;24 63.91
0 2 5;0 0 -10;0 0 0;255 255;0 0;24 63.77
0 2 7;0 0 -10;0 0 0;255 255;0 0;24 64.0
0 2 7;0 0 -10;0 0 0;255 255;0 0;24 64.21
0 2 7;0 0 -10;0 0 0;255 255;0 0;24 64.15
0 2 7;0 0 -10;0 0 0;255 255;0 0;24 64.3
0 2 9;0 0 -10;0 0 0;255 255;0 0;23 63.91
0 2 9;0 0 -10;0 0 0;255 255;0 0;23 64.4
0 2 9;0 0 -10;0 0 0;255 255;0 0;23 64.06
0 2 9;0 0 -10;0 0 0;255 255;0 0;23 63.83
0 2 11;0 0 -10;0 0 0;255 255;0 0;24 64.11
0 2 11;0 0 -10;0 0 0;255 255;0 0;24 63.87
0 2 11;0 0 -10;0 0 0;255 255;0 0;24 64.17
0 2 11;0 0 -10;0 0 0;255 255;0 0;24 64.06
0 2 13;0 0 -10;0 0 0;255 255;0 0;24 64.16
0 2 13;0 0 -10;0 0 0;255 255;0 0;24 64.26
0 2 13;0 0 -10;0 0 0;255 255;0 0;24 64.25
0 2 13;0 0 -10;0 0 0;255 255;0 0;24 64.15
0 2 15;0 0 -10;0 0 0;255 255;0 0;24 64.65
0 2 15;0 0 -10;0 0 0;255 255;0 0;24 64.55
0 2 15;0 0 -10;0 0 0;255 255;0 0;24 64.8
0 2 15;0 0 -10;0 0 0;255 255;0 0;24 64.6
0 2 17;0 0 -10;0 0 0;255 255;0 0;24 64.6
0 2 17;0 0 -10;0 0 0;255 255;0 0;24 64.65
0 2 17;0 0 -10;0 0 0;255 255;0 0;24 65.11
0 2 17;0 0 -10;0 0 0;255 255;0 0;24 65.05
0 2 19;0 0 -10;0 0 0;255 70;0 1;24 64.2
0 2 19;0 0 -10;0 0 0;255 70;0 1;24 64.55
0 2 19;0 0 -10;0 0 0;255 70;0 1;24 64.6
0 2 19;0 0 -10;0 0 0;255 70;0 1;24 64.46
0 2 21;0 0 -10;0 0 0;255 47;0 1;24 64.35
0 2 21;0 0 -10;0 0 0;255 47;0 1;24 64.6
0 2 21;0 0 -10;0 0 0;255 47;0 1;24 64.45
0 2 21;0 0 -10;0 0 0;255 47;0 1;24 64.55
0 2 23;0 0 -10;0 0 0;255 52;0 1;24 64.6
0 2 23;0 0 -10;0 0 0;255 52;0 1;24 64.65
0 2 23;0 0 -10;0 0 0;255 52;0 1;24 64.4
0 2 23;0 0 -10;0 0 0;255 52;0 1;24 64.5
0 2 25;0 0 -10;0 0 0;255 255;0 0;24 64.4
0 2 25;0 0 -10;0 0 0;255 255;0 0;24 64.35
0 2 25;0 0 -10;0 0 0;255 255;0 0;24 64.75
0 2 27;0 0 -10;0 0 0;255 255;0 0;24 64.6
0 2 27;0 0 -10;0 0 0;255 255;0 0;24 64.75
0 2 27;0 0 -10;0 0 0;255 255;0 0;24 64.6
0 2 29;0 0 -10;0 0 0;255 162;0 1;24 64.6
0 2 29;0 0 -10;0 0 0;255 162;0 1;24 64.55
0 2 29;0 0 -10;0 0 0;255 162;0 1;24 64.51
0 2 29;0 0 -10;0 0 0;255 162;0 1;24 64.8
0 2 31;0 0 -10;0 0 0;255 255;0 0;24 64.5
0 2 31;0 0 -10;0 0 0;255 255;0 0;24 64.61
0 2 31;0 0 -10;0 0 0;255 255;0 0;24 64.8
0 2 33;0 0 -10;0 0 0;255 255;0 0;24 64.7
0 2 33;0 0 -10;0 0 0;255 255;0 0;24 64.6
0 2 33;0 0 -10;0 0 0;255 255;0 0;24 64.65
0 2 35;0 0 -10;0 0 0;255 255;0 0;24 64.21
0 2 35;0 0 -10;0 0 0;255 255;0 0;24 64.65
0 2 35;0 0 -10;0 0 0;255 255;0 0;24 65.0
0 2 35;0 0 -10;0 0 0;255 255;0 0;24 64.6
0 2 35;0 0 -10;0 0 0;255 255;0 0;24 64.7
0 2 37;0 0 -10;0 0 0;255 255;0 0;24 64.2
0 2 37;0 0 -10;0 0 0;255 255;0 0;24 64.65
0 2 37;0 0 -10;0 0 0;255 255;0 0;24 64.45
0 2 39;0 0 -10;0 0 0;255 255;0 0;24 64.4
0 2 39;0 0 -10;0 0 0;255 255;0 0;24 64.55
0 2 39;0 0 -10;0 0 0;255 255;0 0;24 64.7
0 2 39;0 0 -10;0 0 0;255 255;0 0;24 64.6
0 2 41;0 0 -10;0 0 0;255 255;0 0;24 64.35
0 2 41;0 0 -10;0 0 0;255 255;0 0;24 64.4
0 2 41;0 0 -10;0 0 0;255 255;0 0;24 64.5
0 2 41;0 0 -10;0 0 0;255 255;0 0;24 64.9
0 2 43;0 0 -10;0 0 0;255 255;0 0;24 64.65
0 2 43;0 0 -10;0 0 0;255 255;0 0;24 64.7
0 2 43;0 0 -10;0 0 0;255 255;0 0;24 64.95
0 2 45;0 0 -10;0 0 0;255 255;0 0;24 64.35
0 2 45;0 0 -10;0 0 0;255 255;0 0;24 64.85
0 2 45;0 0 -10;0 0 0;255 255;0 0;24 64.65
0 2 47;0 0 -10;0 0 0;255 255;0 0;24 64.7
0 2 47;0 0 -10;0 0 0;255 255;0 0;24 64.85
0 2 47;0 0 -10;0 0 0;255 255;0 0;24 65.05
0 2 47;0 0 -10;0 0 0;255 255;0 0;24 65.65
0 2 49;0 0 -10;0 0 0;255 255;0 0;24 65.0
0 2 49;0 0 -10;0 0 0;255 255;0 0;24 64.95
0 2 49;0 0 -10;0 0 0;255 255;0 0;24 65.05
0 2 49;0 0 -10;0 0 0;255 255;0 0;24 64.55
0 2 51;0 0 -10;0 0 0;255 255;0 0;24 64.65
0 2 51;0 0 -10;0 0 0;255 255;0 0;24 64.7
0 2 51;0 0 -10;0 0 0;255 255;0 0;24 65.1
0 2 53;0 0 -10;0 0 0;255 255;0 0;24 64.8
0 2 53;0 0 -10;0 0 0;255 255;0 0;24 64.6
0 2 53;0 0 -10;0 0 0;255 255;0 0;24 64.75
0 2 53;0 0 -10;0 0 0;255 255;0 0;24 64.85
0 2 55;0 0 -10;0 0 0;255 255;0 0;24 64.7
0 2 55;0 0 -10;0 0 0;255 255;0 0;24 64.9
0 2 55;0 0 -10;0 0 0;255 255;0 0;24 64.95
0 2 55;0 0 -10;0 0 0;255 255;0 0;24 65.2
0 2 57;0 0 -10;0 0 0;255 255;0 0;24 64.9
0 2 57;0 0 -10;0 0 0;255 255;0 0;24 64.8
0 2 57;0 0 -10;0 0 0;255 255;0 0;24 65.25
0 2 57;0 0 -10;0 0 0;255 255;0 0;24 65.0
0 2 59;0 0 -10;0 0 0;255 43;0 1;24 64.8
0 2 59;0 0 -10;0 0 0;255 43;0 1;24 65.1
0 2 59;0 0 -10;0 0 0;255 43;0 1;24 65.45
0 2 59;0 0 -10;0 0 0;255 43;0 1;24 64.85
0 3 1;0 0 -10;0 0 0;255 31;0 1;24 64.65
0 3 1;0 0 -10;0 0 0;255 31;0 1;24 64.85
0 3 3;0 0 -10;0 0 0;255 255;0 0;24 64.7
0 3 3;0 0 -10;0 0 0;255 255;0 0;24 64.8
0 3 3;0 0 -10;0 0 0;255 255;0 0;24 64.85
0 3 5;0 0 -10;0 0 0;255 255;0 0;24 64.8
0 3 5;0 0 -10;0 0 0;255 255;0 0;24 65.01
0 3 5;0 0 -10;0 0 0;255 255;0 0;24 65.1
0 3 5;0 0 -10;0 0 0;255 255;0 0;24 65.35
0 3 8;0 0 -10;0 0 0;255 255;0 0;24 65.3
0 3 8;0 0 -10;0 0 0;255 255;0 0;24 65.0
0 3 8;0 0 -10;0 0 0;255 255;0 0;24 65.15
0 3 10;0 0 -10;0 0 0;255 255;0 0;24 65.1
0 3 10;0 0 -10;0 0 0;255 255;0 0;24 64.9
0 3 12;0 0 -10;0 0 0;255 255;0 0;24 64.85
0 3 12;0 0 -10;0 0 0;255 255;0 0;24 65.05
0 3 12;0 0 -10;0 0 0;255 255;0 0;24 65.1
0 3 14;0 0 -10;0 0 0;255 255;0 0;24 64.85
0 3 14;0 0 -10;0 0 0;255 255;0 0;24 65.2
0 3 14;0 0 -10;0 0 0;255 255;0 0;24 65.0
0 3 16;0 0 -10;0 0 0;255 255;0 0;24 65.15
0 3 16;0 0 -10;0 0 0;255 255;0 0;24 65.05
0 3 16;0 0 -10;0 0 0;255 255;0 0;24 65.4
0 3 16;0 0 -10;0 0 0;255 255;0 0;24 65.15
0 3 18;0 0 -10;0 0 0;255 255;0 0;24 64.7
0 3 18;0 0 -10;0 0 0;255 255;0 0;24 65.0
0 3 18;0 0 -10;0 0 0;255 255;0 0;24 65.25
0 3 18;0 0 -10;0 0 0;255 255;0 0;24 65.15
0 3 20;0 0 -10;0 0 0;255 255;0 0;24 64.9
0 3 20;0 0 -10;0 0 0;255 255;0 0;24 65.15
0 3 20;0 0 -10;0 0 0;255 255;0 0;24 65.05
0 3 20;0 0 -10;0 0 0;255 255;0 0;24 65.15
0 3 22;0 0 -10;0 0 0;255 255;0 0;24 64.85
0 3 22;0 0 -10;0 0 0;255 255;0 0;24 65.1
0 3 22;0 0 -10;0 0 0;255 255;0 0;24 64.7
0 3 24;0 0 -10;0 0 0;255 255;0 0;24 65.25
0 3 24;0 0 -10;0 0 0;255 255;0 0;24 65.35
0 3 24;0 0 -10;0 0 0;255 255;0 0;24 65.75
0 3 24;0 0 -10;0 0 0;255 255;0 0;24 64.95
0 3 26;0 0 -10;0 0 0;255 255;0 0;24 65.1
0 3 26;0 0 -10;0 0 0;255 255;0 0;24 65.15
0 3 26;0 0 -10;0 0 0;255 255;0 0;24 65.25
0 3 26;0 0 -10;0 0 0;255 255;0 0;24 65.3
0 3 28;0 0 -10;0 0 0;255 255;0 0;24 65.3
0 3 28;0 0 -10;0 0 0;255 255;0 0;24 65.5
0 3 28;0 0 -10;0 0 0;255 255;0 0;24 65.15
0 3 28;0 0 -10;0 0 0;255 255;0 0;24 65.25
0 3 30;0 0 -10;0 0 0;255 255;0 0;24 65.2
0 3 30;0 0 -10;0 0 0;255 255;0 0;24 65.4
0 3 32;0 0 -10;0 0 0;255 255;0 0;24 65.3
0 3 32;0 0 -10;0 0 0;255 255;0 0;24 65.0
0 3 32;0 0 -10;0 0 0;255 255;0 0;24 65.35
0 3 32;0 0 -10;0 0 0;255 255;0 0;24 65.45
0 3 34;0 0 -10;0 0 0;255 255;0 0;24 65.35
0 3 34;0 0 -10;0 0 0;255 255;0 0;24 65.7
0 3 34;0 0 -10;0 0 0;255 255;0 0;24 65.35
0 3 36;0 0 -10;0 0 0;255 255;0 0;24 65.25
0 3 36;0 0 -10;0 0 0;255 255;0 0;24 65.6
0 3 36;0 0 -10;0 0 0;255 255;0 0;24 65.3
0 3 36;0 0 -10;0 0 0;255 255;0 0;24 65.5
0 3 38;0 0 -10;0 0 0;255 255;0 0;24 65.4
0 3 38;0 0 -10;0 0 0;255 255;0 0;24 65.15
0 3 38;0 0 -10;0 0 0;255 255;0 0;24 65.35
0 3 40;0 0 -10;0 0 0;255 255;0 0;24 65.6
0 3 40;0 0 -10;0 0 0;255 255;0 0;24 65.35
0 3 40;0 0 -10;0 0 0;255 255;0 0;24 65.55
0 3 42;0 0 -10;0 0 0;255 255;0 0;24 65.2
0 3 42;0 0 -10;0 0 0;255 255;0 0;24 65.5
0 3 42;0 0 -10;0 0 0;255 255;0 0;24 65.25
0 3 42;0 0 -10;0 0 0;255 255;0 0;24 65.7
0 3 44;0 0 -10;0 0 0;255 255;0 0;24 65.85
0 3 44;0 0 -10;0 0 0;255 255;0 0;24 65.3
0 3 44;0 0 -10;0 0 0;255 255;0 0;24 65.15
0 3 44;0 0 -10;0 0 0;255 255;0 0;24 65.45
0 3 44;0 0 -10;0 0 0;255 255;0 0;24 65.25
0 3 46;0 0 -10;0 0 0;255 255;0 0;24 65.0
0 3 46;0 0 -10;0 0 0;255 255;0 0;24 65.4
0 3 46;0 0 -10;0 0 0;255 255;0 0;24 64.65
0 3 46;0 0 -10;0 0 0;255 255;0 0;24 65.0
0 3 48;0 0 -10;0 0 0;255 255;0 0;24 65.45
0 3 48;0 0 -10;0 0 0;255 255;0 0;24 65.1
0 3 48;0 0 -10;0 0 0;255 255;0 0;24 65.3
0 3 50;0 0 -10;0 0 0;255 255;0 0;24 64.8
0 3 50;0 0 -10;0 0 0;255 255;0 0;24 65.1
0 3 50;0 0 -10;0 0 0;255 255;0 0;24 65.25
0 3 50;0 0 -10;0 0 0;255 255;0 0;24 65.05
0 3 52;0 0 -10;0 0 0;255 255;0 0;24 65.25
0 3 52;0 0 -10;0 0 0;255 255;0 0;24 64.8
0 3 52;0 0 -10;0 0 0;255 255;0 0;24 65.1
0 3 52;0 0 -10;0 0 0;255 255;0 0;24 65.4
0 3 54;0 0 -10;0 0 0;255 255;0 0;24 65.2
0 3 54;0 0 -10;0 0 0;255 255;0 0;24 65.85
0 3 54;0 0 -10;0 0 0;255 255;0 0;24 65.6
0 3 54;0 0 -10;0 0 0;255 255;0 0;24 65.85
0 3 56;0 0 -10;0 0 0;255 255;0 0;24 65.5
0 3 56;0 0 -10;0 0 0;255 255;0 0;24 65.35
0 3 56;0 0 -10;0 0 0;255 255;0 0;24 65.6
0 3 56;0 0 -10;0 0 0;255 255;0 0;24 65.75
0 3 58;0 0 -10;0 0 0;255 255;0 0;24 65.3
0 3 58;0 0 -10;0 0 0;255 255;0 0;24 65.8
0 3 58;0 0 -10;0 0 0;255 255;0 0;24 65.45
0 3 58;0 0 -10;0 0 0;255 255;0 0;24 65.85
0 4 0;0 0 -10;0 0 0;255 255;0 0;24 65.6
0 4 0;0 0 -10;0 0 0;255 255;0 0;24 65.45
0 4 0;0 0 -10;0 0 0;255 255;0 0;24 65.5
0 0 3;0 0 -10;0 0 0;255 255;0 0;24 60.24
0 0 3;0 0 -10;0 0 0;255 255;0 0;24 60.47
0 0 3;0 0 -10;0 0 0;255 255;0 0;24 60.37
0 0 3;0 0 -10;0 0 0;255 255;0 0;24 60.76
0 0 5;0 0 -10;0 0 0;255 255;0 0;24 60.85
0 0 5;0 0 -10;0 0 0;255 255;0 0;24 60.76
0 0 5;0 0 -10;0 0 0;255 255;0 0;24 60.85
0 0 5;0 0 -10;0 0 0;255 255;0 0;24 60.91
0 0 7;0 0 -10;0 0 0;255 255;0 0;24 60.95
0 0 7;0 0 -10;0 0 0;255 255;0 0;24 61.01
0 0 7;0 0 -10;0 0 0;255 255;0 0;24 61.0
0 0 9;0 0 -10;0 0 0;255 255;0 0;24 61.15
0 0 9;0 0 -10;0 0 0;255 255;0 0;24 61.2
0 0 9;0 0 -10;0 0 0;255 255;0 0;24 61.25
0 0 9;0 0 -10;0 0 0;255 255;0 0;24 61.45
0 0 11;0 0 -10;0 0 0;255 255;0 0;24 61.15
0 0 11;0 0 -10;0 0 0;255 255;0 0;24 61.3
0 0 11;0 0 -10;0 0 0;255 255;0 0;24 61.6
0 0 11;0 0 -10;0 0 0;255 255;0 0;24 61.8
0 0 13;0 0 -10;0 0 0;255 255;0 0;24 61.3
0 0 13;0 0 -10;0 0 0;255 255;0 0;24 61.6
0 0 13;0 0 -10;0 0 0;255 255;0 0;24 61.65
0 0 15;0 0 -10;0 0 0;255 255;0 0;24 61.4
0 0 15;0 0 -10;0 0 0;255 255;0 0;24 61.8
0 0 15;0 0 -10;0 0 0;255 255;0 0;24 62.2
0 0 17;0 0 -10;0 0 0;255 255;0 0;24 62.15
0 0 17;0 0 -10;0 0 0;255 255;0 0;24 61.75
0 0 17;0 0 -10;0 0 0;255 255;0 0;24 61.85
0 0 17;0 0 -10;0 0 0;255 255;0 0;24 61.9
0 0 19;0 0 -10;0 0 0;255 255;0 0;24 61.65
0 0 19;0 0 -10;0 0 0;255 255;0 0;24 62.0
0 0 19;0 0 -10;0 0 0;255 255;0 0;24 62.1
0 0 19;0 0 -10;0 0 0;255 255;0 0;24 61.75
0 0 21;0 0 -10;0 0 0;255 255;0 0;24 62.1
0 0 21;0 0 -10;0 0 0;255 255;0 0;24 62.25
0 0 21;0 0 -10;0 0 0;255 255;0 0;24 61.95
0 0 21;0 0 -10;0 0 0;255 255;0 0;24 62.0
0 0 23;0 0 -10;0 0 0;255 255;0 0;24 62.25
0 0 23;0 0 -10;0 0 0;255 255;0 0;24 61.85
0 0 23;0 0 -10;0 0 0;255 255;0 0;24 62.0
0 0 23;0 0 -10;0 0 0;255 255;0 0;24 62.05
0 0 25;0 0 -10;0 0 0;255 255;0 0;24 61.85
0 0 25;0 0 -10;0 0 0;255 255;0 0;24 61.65
0 0 25;0 0 -10;0 0 0;255 255;0 0;24 62.1
0 0 25;0 0 -10;0 0 0;255 255;0 0;24 62.05
0 0 25;0 0 -10;0 0 0;255 255;0 0;24 62.1
0 0 27;0 0 -10;0 0 0;255 255;0 0;24 62.3
0 0 27;0 0 -10;0 0 0;255 255;0 0;24 62.5
0 0 27;0 0 -10;0 0 0;255 255;0 0;24 63.04
0 0 29;0 0 -10;0 0 0;255 255;0 0;24 62.7
0 0 29;0 0 -10;0 0 0;255 255;0 0;24 62.6
0 0 29;0 0 -10;0 0 0;255 255;0 0;24 62.44
0 0 29;0 0 -10;0 0 0;255 255;0 0;24 62.2
0 0 31;0 0 -10;0 0 0;255 255;0 0;24 61.8
0 0 31;0 0 -10;0 0 0;255 255;0 0;24 62.69
0 0 31;0 0 -10;0 0 0;255 255;0 0;24 62.25
0 0 31;0 0 -10;0 0 0;255 255;0 0;24 62.89
0 0 31;0 0 -10;0 0 0;255 255;0 0;24 62.84
0 0 33;0 0 -10;0 0 0;255 255;0 0;24 62.8
0 0 33;0 0 -10;0 0 0;255 255;0 0;24 63.0
0 0 33;0 0 -10;0 0 0;255 255;0 0;24 62.99
0 0 33;0 0 -10;0 0 0;255 255;0 0;24 62.74
0 0 35;0 0 -10;0 0 0;255 255;0 0;24 63.13
0 0 35;0 0 -10;0 0 0;255 255;0 0;24 63.02
0 0 35;0 0 -10;0 0 0;255 255;0 0;24 62.8
0 0 35;0 0 -10;0 0 0;255 255;0 0;24 63.18
0 0 37;0 0 -10;0 0 0;255 255;0 0;24 63.41
0 0 37;0 0 -10;0 0 0;255 255;0 0;24 62.94
0 0 37;0 0 -10;0 0 0;255 255;0 0;24 63.23
0 0 39;0 0 -10;0 0 0;255 255;0 0;24 63.02
0 0 39;0 0 -10;0 0 0;255 255;0 0;24 63.13
0 0 39;0 0 -10;0 0 0;255 255;0 0;24 63.31
0 0 39;0 0 -10;0 0 0;255 255;0 0;24 63.13
0 0 39;0 0 -10;0 0 0;255 255;0 0;24 63.56
0 0 41;0 0 -10;0 0 0;255 255;0 0;24 63.27
0 0 41;0 0 -10;0 0 0;255 255;0 0;24 63.42
0 0 41;0 0 -10;0 0 0;255 255;0 0;24 63.22
0 0 41;0 0 -10;0 0 0;255 255;0 0;24 63.5
0 0 43;0 0 -10;0 0 0;255 255;0 0;24 63.31
0 0 43;0 0 -10;0 0 0;255 255;0 0;24 63.37
0 0 45;0 0 -10;0 0 0;255 255;0 0;24 63.45
0 0 45;0 0 -10;0 0 0;255 255;0 0;24 63.44
0 0 45;0 0 -10;0 0 0;255 255;0 0;24 63.17
0 0 45;0 0 -10;0 0 0;255 255;0 0;24 63.54
0 0 47;0 0 -10;0 0 0;255 255;0 0;24 63.03
0 0 47;0 0 -10;0 0 0;255 255;0 0;24 63.26
0 0 47;0 0 -10;0 0 0;255 255;0 0;24 63.42
